item_nr,condition,text,corr_ans,is_practice_trial,thisN,thisTrialN,thisRepN,stim_resp.keys,stim_resp.corr,stim_resp.rt,stim_resp.duration,practice_trials.thisRepN,practice_trials.thisTrialN,practice_trials.thisN,practice_trials.thisIndex,trials.thisRepN,trials.thisTrialN,trials.thisN,trials.thisIndex,thisRow.t,notes,intro.started,intro_resp.started,intro.stopped,feedback_prep.started,feedback_prep_text.started,feedback_prep_key_resp.started,feedback_prep.stopped,trial.started,fix.started,fix.stopped,stimulus.started,stim_resp.started,trial.stopped,practice_trials.stim_resp.keys,practice_trials.stim_resp.corr,practice_trials.stim_resp.rt,practice_trials.stim_resp.duration,feedback.started,feedback.stopped,proper_trials_prep.started,proper_trials_prep_text.started,proper_trials_prep_resp.started,proper_trials_prep.stopped,trials.stim_resp.keys,trials.stim_resp.corr,trials.stim_resp.rt,trials.stim_resp.duration,store_resp_and_break.started,store_resp_and_break.stopped,end.started,end.stopped,participant,age,gender,dominant hand,first language,date,expName,psychopyVersion,frameRate,expStart,
,,,,,,,,,,,,,,,,,,,,,,0.004215699999804201,3.0028221000002304,4.990160199999991,,,,,,,,,,,,,,,,,,,,,,,,,,,,,044195,18,male,right,german,2024-10-23_13h56.15.156,demo_experiment,2024.2.3,60.085212848943684,2024-10-23 13h56.21.519019 +0200,
,,,,,,,,,,,,,,,,,,,,,,,,,4.990207900000314,5.005716300000131,5.005716300000131,7.144113500000458,,,,,,,,,,,,,,,,,,,,,,,,,044195,18,male,right,german,2024-10-23_13h56.15.156,demo_experiment,2024.2.3,60.085212848943684,2024-10-23 13h56.21.519019 +0200,
5,pseudoword,tobreren,lalt,True,0,0,0,ralt,0,None,None,0,0,0,9,,,,,7.158600900000238,,,,,,,,,7.1545734999999695,7.408683000000565,7.910087100000055,8.144127900000058,8.144127900000058,8.210665999999947,ralt,0,None,None,8.744278600000143,8.745383600000423,,,,,,,,,,,,,044195,18,male,right,german,2024-10-23_13h56.15.156,demo_experiment,2024.2.3,60.085212848943684,2024-10-23 13h56.21.519019 +0200,
4,word,sagt,ralt,True,1,1,0,ralt,1,None,None,0,1,1,6,,,,,8.750150200000462,,,,,,,,,8.746877600000516,9.00321090000034,9.503875000000335,9.754289299999982,9.754289299999982,9.854861300000266,ralt,1,None,None,10.387931799999933,10.388904400000683,,,,,,,,,,,,,044195,18,male,right,german,2024-10-23_13h56.15.156,demo_experiment,2024.2.3,60.085212848943684,2024-10-23 13h56.21.519019 +0200,
3,word,korrekt,ralt,True,2,2,0,ralt,1,0.08294699999987643,None,0,2,2,4,,,,,10.393901800000094,,,,,,,,,10.390356300000349,10.647453000000496,11.148417899999913,11.398440599999958,11.398440599999958,11.482158200000413,ralt,1,0.08294699999987643,None,12.015033300000141,12.016136400000505,,,,,,,,,,,,,044195,18,male,right,german,2024-10-23_13h56.15.156,demo_experiment,2024.2.3,60.085212848943684,2024-10-23 13h56.21.519019 +0200,
4,pseudoword,segt,lalt,True,3,3,0,ralt,0,0.056271299999934854,None,0,3,3,7,,,,,12.021187000000282,,,,,,,,,12.017413900000065,12.27493130000039,12.775132600000688,13.02525870000045,13.02525870000045,13.09406620000027,ralt,0,0.056271299999934854,None,13.627674000000297,13.628643000000011,,,,,,,,,,,,,044195,18,male,right,german,2024-10-23_13h56.15.156,demo_experiment,2024.2.3,60.085212848943684,2024-10-23 13h56.21.519019 +0200,
1,word,Haie,ralt,True,4,4,0,lalt,0,0.03989520000050106,None,0,4,4,0,,,,,13.636434200000622,,,,,,,,,13.630651700000271,13.887392100000397,14.38811429999987,14.638773399999991,14.638773399999991,14.690201299999899,lalt,0,0.03989520000050106,None,15.221949600000698,15.222948100000394,,,,,,,,,,,,,044195,18,male,right,german,2024-10-23_13h56.15.156,demo_experiment,2024.2.3,60.085212848943684,2024-10-23 13h56.21.519019 +0200,
2,pseudoword,sanzes,lalt,True,5,5,0,lalt,1,0.019342999999935273,None,0,5,5,3,,,,,15.228647700000693,,,,,,,,,15.226058300000659,15.481279300000097,15.98204110000006,16.233617400000185,16.233617400000185,16.266956600000412,lalt,1,0.019342999999935273,None,16.80029740000009,16.801309100000253,,,,,,,,,,,,,044195,18,male,right,german,2024-10-23_13h56.15.156,demo_experiment,2024.2.3,60.085212848943684,2024-10-23 13h56.21.519019 +0200,
3,pseudoword,Torrerk,lalt,True,6,6,0,lalt,1,0.026638099999217957,None,0,6,6,5,,,,,16.806350900000325,,,,,,,,,16.803015399999822,17.05880320000051,17.559680500000468,17.809802700000546,17.809802700000546,17.84383330000037,lalt,1,0.026638099999217957,None,18.377522800000406,18.378481499999907,,,,,,,,,,,,,044195,18,male,right,german,2024-10-23_13h56.15.156,demo_experiment,2024.2.3,60.085212848943684,2024-10-23 13h56.21.519019 +0200,
2,word,Mannes,ralt,True,7,7,0,ralt,1,0.15066179999939777,None,0,7,7,2,,,,,18.38303780000024,,,,,,,,,18.380943000000116,18.63634060000004,19.137150999999903,19.387297400000534,19.387297400000534,19.555564100000083,ralt,1,0.15066179999939777,None,20.08801399999993,20.088998100000026,,,,,,,,,,,,,044195,18,male,right,german,2024-10-23_13h56.15.156,demo_experiment,2024.2.3,60.085212848943684,2024-10-23 13h56.21.519019 +0200,
1,pseudoword,Bage,lalt,True,8,8,0,lalt,1,0.04705809999995836,None,0,8,8,1,,,,,20.093750099999852,,,,,,,,,20.09118649999982,20.346619900000405,20.847790700000587,21.098028700000214,21.098028700000214,21.14861100000053,lalt,1,0.04705809999995836,None,21.683231500000147,21.683906600000228,,,,,,,,,,,,,044195,18,male,right,german,2024-10-23_13h56.15.156,demo_experiment,2024.2.3,60.085212848943684,2024-10-23 13h56.21.519019 +0200,
5,word,sicheren,ralt,True,9,9,0,ralt,1,0.12905099999989034,None,0,9,9,8,,,,,21.689542099999926,,,,,,,,,21.685356500000125,21.94108039999992,22.441811499999858,22.69225650000044,22.69225650000044,22.826067500000136,ralt,1,0.12905099999989034,None,23.359829200000604,23.36058580000008,,,,,,,,,,,,,044195,18,male,right,german,2024-10-23_13h56.15.156,demo_experiment,2024.2.3,60.085212848943684,2024-10-23 13h56.21.519019 +0200,
,,,,,,,,,,,,,,,,,,,,,,,,,,,,,,,,,,,,,,,,,23.360656400000153,23.36503900000025,24.369045700000243,24.787688100000196,,,,,,,,,044195,18,male,right,german,2024-10-23_13h56.15.156,demo_experiment,2024.2.3,60.085212848943684,2024-10-23 13h56.21.519019 +0200,
99,pseudoword,hößt,lalt,False,0,0,0,ralt,0,0.11546929999985878,None,,,,,0,0,0,197,24.802988500000538,,,,,,,,,24.800004300000182,25.037642500000402,25.53807880000022,25.788504600000124,25.788504600000124,25.905395700000554,,,,,,,,,,,ralt,0,0.11546929999985878,None,25.905486000000565,25.905653300000267,,,044195,18,male,right,german,2024-10-23_13h56.15.156,demo_experiment,2024.2.3,60.085212848943684,2024-10-23 13h56.21.519019 +0200,
150,pseudoword,otertesten,lalt,False,1,1,0,ralt,0,0.08409179999944172,None,,,,,0,1,1,299,25.922108100000514,,,,,,,,,25.907566400000178,26.155748300000596,26.6563900000001,26.90734920000068,26.90734920000068,27.00717799999984,,,,,,,,,,,ralt,0,0.08409179999944172,None,27.007236500000545,27.00742260000061,,,044195,18,male,right,german,2024-10-23_13h56.15.156,demo_experiment,2024.2.3,60.085212848943684,2024-10-23 13h56.21.519019 +0200,
135,word,vorschriftswidrig,ralt,False,2,2,0,lalt,0,0.10130970000045636,None,,,,,0,2,2,268,27.023606100000507,,,,,,,,,27.009425199999896,27.257477300000573,27.758257500000582,28.009048100000655,28.009048100000655,28.126165700000456,,,,,,,,,,,lalt,0,0.10130970000045636,None,28.12626790000013,28.126475900000514,,,044195,18,male,right,german,2024-10-23_13h56.15.156,demo_experiment,2024.2.3,60.085212848943684,2024-10-23 13h56.21.519019 +0200,
50,word,Würstchen,ralt,False,3,3,0,ralt,1,0.08057790000020759,None,,,,,0,3,3,98,28.141285499999867,,,,,,,,,28.129565500000353,28.37589250000019,28.876673000000665,29.126514900000075,29.126514900000075,29.210842299999968,,,,,,,,,,,ralt,1,0.08057790000020759,None,29.210921599999892,29.211105000000316,,,044195,18,male,right,german,2024-10-23_13h56.15.156,demo_experiment,2024.2.3,60.085212848943684,2024-10-23 13h56.21.519019 +0200,
122,pseudoword,Spruntet,lalt,False,4,4,0,lalt,1,0.04716649999954825,None,,,,,0,4,4,243,29.226981499999965,,,,,,,,,29.212810800000625,29.46086650000052,29.961418500000036,30.212219400000322,30.212219400000322,30.262383899999804,,,,,,,,,,,lalt,1,0.04716649999954825,None,30.26244450000013,30.262627000000066,,,044195,18,male,right,german,2024-10-23_13h56.15.156,demo_experiment,2024.2.3,60.085212848943684,2024-10-23 13h56.21.519019 +0200,
83,pseudoword,entschühmt,lalt,False,5,5,0,ralt,0,0.10024759999942034,None,,,,,0,5,5,165,30.279476000000614,,,,,,,,,30.264944200000173,30.51209800000015,31.012996400000702,31.262969400000657,31.262969400000657,31.364045400000578,,,,,,,,,,,ralt,0,0.10024759999942034,None,31.364124900000206,31.36436920000051,,,044195,18,male,right,german,2024-10-23_13h56.15.156,demo_experiment,2024.2.3,60.085212848943684,2024-10-23 13h56.21.519019 +0200,
51,pseudoword,Perrsoldat,lalt,False,6,6,0,lalt,1,0.06514419999984966,None,,,,,0,6,6,101,31.381109500000093,,,,,,,,,31.3659846999999,31.613726399999905,32.11438150000049,32.365016800000376,32.365016800000376,32.431867300000704,,,,,,,,,,,lalt,1,0.06514419999984966,None,32.43194810000023,32.43220310000015,,,044195,18,male,right,german,2024-10-23_13h56.15.156,demo_experiment,2024.2.3,60.085212848943684,2024-10-23 13h56.21.519019 +0200,
44,word,Vereinfachung,ralt,False,7,7,0,ralt,1,0.030675999999402848,None,,,,,0,7,7,86,32.449318400000266,,,,,,,,,32.43479280000065,32.68214520000038,33.18276370000058,33.43321990000004,33.43321990000004,33.46740150000005,,,,,,,,,,,ralt,1,0.030675999999402848,None,33.46747950000008,33.467706200000066,,,044195,18,male,right,german,2024-10-23_13h56.15.156,demo_experiment,2024.2.3,60.085212848943684,2024-10-23 13h56.21.519019 +0200,
81,word,endgültig,ralt,False,8,8,0,lalt,0,0.09363219999977446,None,,,,,0,8,8,160,33.483415600000626,,,,,,,,,33.46981599999981,33.71685940000043,34.217819899999995,34.46813060000022,34.46813060000022,34.57026140000016,,,,,,,,,,,lalt,0,0.09363219999977446,None,34.57037010000022,34.57068760000038,,,044195,18,male,right,german,2024-10-23_13h56.15.156,demo_experiment,2024.2.3,60.085212848943684,2024-10-23 13h56.21.519019 +0200,
131,pseudoword,berschlußven,lalt,False,9,9,0,ralt,0,0.07328489999963494,None,,,,,0,9,9,261,34.585210400000506,,,,,,,,,34.572637100000065,34.83532280000054,35.33568930000001,35.56936570000016,35.56936570000016,35.654203099999904,,,,,,,,,,,ralt,0,0.07328489999963494,None,35.65430740000011,35.654635300000336,,,044195,18,male,right,german,2024-10-23_13h56.15.156,demo_experiment,2024.2.3,60.085212848943684,2024-10-23 13h56.21.519019 +0200,
108,pseudoword,fitzten,lalt,False,10,10,0,lalt,1,0.06707399999959307,None,,,,,0,10,10,215,35.6701563000006,,,,,,,,,35.65662280000015,35.90392310000061,36.40449669999998,36.654474400000254,36.654474400000254,36.7225085,,,,,,,,,,,lalt,1,0.06707399999959307,None,36.72257140000056,36.722773500000585,,,044195,18,male,right,german,2024-10-23_13h56.15.156,demo_experiment,2024.2.3,60.085212848943684,2024-10-23 13h56.21.519019 +0200,
115,word,reparierten,ralt,False,11,11,0,ralt,1,0.06795290000081877,None,,,,,0,11,11,228,36.7384634,,,,,,,,,36.72441140000046,36.97245170000042,37.47253570000066,37.723433099999966,37.723433099999966,37.80846890000066,,,,,,,,,,,ralt,1,0.06795290000081877,None,37.808545400000185,37.80882040000051,,,044195,18,male,right,german,2024-10-23_13h56.15.156,demo_experiment,2024.2.3,60.085212848943684,2024-10-23 13h56.21.519019 +0200,
148,word,überbelegt,ralt,False,12,12,0,ralt,1,3.764608700000281,None,,,,,0,12,12,294,37.82311389999995,,,,,,,,,37.81046200000037,38.07387480000034,38.62601530000029,38.80816810000033,38.80816810000033,42.581141700000444,,,,,,,,,,,ralt,1,3.764608700000281,None,42.58122960000037,42.58138240000062,,,044195,18,male,right,german,2024-10-23_13h56.15.156,demo_experiment,2024.2.3,60.085212848943684,2024-10-23 13h56.21.519019 +0200,
118,word,schönste,ralt,False,13,13,0,ralt,1,0.080531599999631,None,,,,,0,13,13,234,42.59711940000034,,,,,,,,,42.58315430000039,42.83079820000057,43.331044999999904,43.58215139999993,43.58215139999993,43.66542759999993,,,,,,,,,,,ralt,1,0.080531599999631,None,43.66548469999998,43.66563219999989,,,044195,18,male,right,german,2024-10-23_13h56.15.156,demo_experiment,2024.2.3,60.085212848943684,2024-10-23 13h56.21.519019 +0200,
67,word,ausdenkt,ralt,False,14,14,0,lalt,0,0.08893780000016704,None,,,,,0,14,14,132,43.68175770000016,,,,,,,,,43.667282800000066,43.915837600000486,44.41649670000061,44.666864499999974,44.666864499999974,44.76849709999988,,,,,,,,,,,lalt,0,0.08893780000016704,None,44.768567500000245,44.76871680000022,,,044195,18,male,right,german,2024-10-23_13h56.15.156,demo_experiment,2024.2.3,60.085212848943684,2024-10-23 13h56.21.519019 +0200,
105,pseudoword,seteinagelesenischem,lalt,False,15,15,0,lalt,1,0.030457599999863305,None,,,,,0,15,15,209,44.78393490000053,,,,,,,,,44.7704375000003,45.034059600000546,45.53488660000039,45.768519500000366,45.768519500000366,45.80369640000026,,,,,,,,,,,lalt,1,0.030457599999863305,None,45.803759600000376,45.80394770000021,,,044195,18,male,right,german,2024-10-23_13h56.15.156,demo_experiment,2024.2.3,60.085212848943684,2024-10-23 13h56.21.519019 +0200,
94,pseudoword,werillen,lalt,False,16,16,0,lalt,1,0.027035900000555557,None,,,,,0,16,16,187,45.81881130000056,,,,,,,,,45.805392199999915,46.06914779999988,46.56932620000043,46.803252200000315,46.803252200000315,46.8377430999999,,,,,,,,,,,lalt,1,0.027035900000555557,None,46.837808600000244,46.83800640000027,,,044195,18,male,right,german,2024-10-23_13h56.15.156,demo_experiment,2024.2.3,60.085212848943684,2024-10-23 13h56.21.519019 +0200,
28,pseudoword,Hasteln,lalt,False,17,17,0,lalt,1,1.3858860999998797,None,,,,,0,17,17,55,46.853178400000616,,,,,,,,,46.83954369999992,47.087533599999915,47.60902249999981,47.839186500000324,47.839186500000324,49.24107780000031,,,,,,,,,,,lalt,1,1.3858860999998797,None,49.24113810000017,49.241277200000695,,,044195,18,male,right,german,2024-10-23_13h56.15.156,demo_experiment,2024.2.3,60.085212848943684,2024-10-23 13h56.21.519019 +0200,
90,word,fixiert,ralt,False,18,18,0,lalt,0,0.2403849000002083,None,,,,,0,18,18,178,49.257257799999934,,,,,,,,,49.2431789000002,49.49151729999994,49.99156920000041,50.24159289999989,50.24159289999989,50.492819000000054,,,,,,,,,,,lalt,0,0.2403849000002083,None,50.4928774,50.49302119999993,,,044195,18,male,right,german,2024-10-23_13h56.15.156,demo_experiment,2024.2.3,60.085212848943684,2024-10-23 13h56.21.519019 +0200,
98,word,hinlege,ralt,False,19,19,0,lalt,0,0.832990100000643,None,,,,,0,19,19,194,50.50911120000001,,,,,,,,,50.49437190000026,50.74289399999998,51.24296279999999,51.518062199999804,51.518062199999804,52.36264530000062,,,,,,,,,,,lalt,0,0.832990100000643,None,52.36271310000029,52.3628663999998,,,044195,18,male,right,german,2024-10-23_13h56.15.156,demo_experiment,2024.2.3,60.085212848943684,2024-10-23 13h56.21.519019 +0200,
39,pseudoword,Vägevenk,lalt,False,20,20,0,lalt,1,0.22028230000069016,None,,,,,0,20,20,77,52.37968080000064,,,,,,,,,52.365406100000655,52.61177950000001,53.11317640000016,53.36306140000033,53.36306140000033,53.59765400000015,,,,,,,,,,,lalt,1,0.22028230000069016,None,53.59772620000058,53.59791860000041,,,044195,18,male,right,german,2024-10-23_13h56.15.156,demo_experiment,2024.2.3,60.085212848943684,2024-10-23 13h56.21.519019 +0200,
86,pseudoword,erweihst,lalt,False,21,21,0,lalt,1,0.22540370000024268,None,,,,,0,21,21,171,53.613638800000444,,,,,,,,,53.599313300000176,53.84709860000021,54.34769910000068,54.59862510000039,54.59862510000039,54.832660200000646,,,,,,,,,,,lalt,1,0.22540370000024268,None,54.83273079999981,54.83292010000059,,,044195,18,male,right,german,2024-10-23_13h56.15.156,demo_experiment,2024.2.3,60.085212848943684,2024-10-23 13h56.21.519019 +0200,
144,word,zeugt,ralt,False,22,22,0,lalt,0,3.7757760000004055,None,,,,,0,22,22,286,54.84856159999981,,,,,,,,,54.83462090000012,55.08242070000051,55.58276509999996,55.83343109999987,55.83343109999987,59.614972899999884,,,,,,,,,,,lalt,0,3.7757760000004055,None,59.615064300000085,59.61528300000009,,,044195,18,male,right,german,2024-10-23_13h56.15.156,demo_experiment,2024.2.3,60.085212848943684,2024-10-23 13h56.21.519019 +0200,
64,pseudoword,ausschwikken,lalt,False,23,23,0,lalt,1,1.1485552000003736,None,,,,,0,23,23,127,59.630880400000024,,,,,,,,,59.61700980000023,59.86572200000046,60.3651432000006,60.61579669999992,60.61579669999992,61.76960450000024,,,,,,,,,,,lalt,1,1.1485552000003736,None,61.76970020000044,61.769988699999885,,,044195,18,male,right,german,2024-10-23_13h56.15.156,demo_experiment,2024.2.3,60.085212848943684,2024-10-23 13h56.21.519019 +0200,
133,pseudoword,verteilsket,lalt,False,24,24,0,lalt,1,0.16369440000016766,None,,,,,0,24,24,265,61.78497450000032,,,,,,,,,61.771620299999995,62.03578110000035,62.53525170000012,62.78580370000054,62.78580370000054,62.953500700000404,,,,,,,,,,,lalt,1,0.16369440000016766,None,62.953562700000475,62.953723900000114,,,044195,18,male,right,german,2024-10-23_13h56.15.156,demo_experiment,2024.2.3,60.085212848943684,2024-10-23 13h56.21.519019 +0200,
70,word,behinderten,ralt,False,25,25,0,lalt,0,0.04938970000057452,None,,,,,0,25,25,138,62.96964930000013,,,,,,,,,62.95518970000012,63.203063800000564,63.704316299999846,63.95445290000043,63.95445290000043,64.00504300000011,,,,,,,,,,,lalt,0,0.04938970000057452,None,64.00512190000063,64.0054138000005,,,044195,18,male,right,german,2024-10-23_13h56.15.156,demo_experiment,2024.2.3,60.085212848943684,2024-10-23 13h56.21.519019 +0200,
141,word,wunderschöne,ralt,False,26,26,0,lalt,0,0.04216989999986254,None,,,,,0,26,26,280,64.02081710000039,,,,,,,,,64.00755639999988,64.25464830000055,64.75543350000044,65.0056766000007,65.0056766000007,65.05703940000058,,,,,,,,,,,lalt,0,0.04216989999986254,None,65.05710470000031,65.05732910000006,,,044195,18,male,right,german,2024-10-23_13h56.15.156,demo_experiment,2024.2.3,60.085212848943684,2024-10-23 13h56.21.519019 +0200,
131,word,verschmutzen,ralt,False,27,27,0,lalt,0,0.04392980000011448,None,,,,,0,27,27,260,65.07286690000001,,,,,,,,,65.05919119999999,65.30705600000056,65.80748740000035,66.05820690000019,66.05820690000019,66.10807440000008,,,,,,,,,,,lalt,0,0.04392980000011448,None,66.1081291999999,66.1083306999999,,,044195,18,male,right,german,2024-10-23_13h56.15.156,demo_experiment,2024.2.3,60.085212848943684,2024-10-23 13h56.21.519019 +0200,
45,pseudoword,Rerstiktabschlössen,lalt,False,28,28,0,lalt,1,0.05716670000037993,None,,,,,0,28,28,89,66.12419910000062,,,,,,,,,66.11008290000063,66.3581348000007,66.85853899999984,67.1091462000004,67.1091462000004,67.17651420000038,,,,,,,,,,,lalt,1,0.05716670000037993,None,67.17658829999982,67.17677840000033,,,044195,18,male,right,german,2024-10-23_13h56.15.156,demo_experiment,2024.2.3,60.085212848943684,2024-10-23 13h56.21.519019 +0200,
94,word,gefallen,ralt,False,29,29,0,ralt,1,0.13402990000031423,None,,,,,0,29,29,186,67.19246740000017,,,,,,,,,67.17831290000049,67.42633960000057,67.92708000000039,68.17782270000043,68.17782270000043,68.32838739999988,,,,,,,,,,,ralt,1,0.13402990000031423,None,68.32846460000019,68.32868620000045,,,044195,18,male,right,german,2024-10-23_13h56.15.156,demo_experiment,2024.2.3,60.085212848943684,2024-10-23 13h56.21.519019 +0200,
7,word,Figuren,ralt,False,30,30,0,ralt,1,0.006212500000401633,None,,,,,0,30,30,12,68.3445599000006,,,,,,,,,68.33001520000016,68.5776405000006,69.07876620000025,69.32858550000037,69.32858550000037,69.3462884999999,,,,,,,,,,,ralt,1,0.006212500000401633,None,69.34637920000023,69.34664330000032,,,044195,18,male,right,german,2024-10-23_13h56.15.156,demo_experiment,2024.2.3,60.085212848943684,2024-10-23 13h56.21.519019 +0200,
110,word,niedergezwungen,ralt,False,31,31,0,lalt,0,0.08658030000060535,None,,,,,0,31,31,218,69.36196389999986,,,,,,,,,69.34855460000017,69.59650500000043,70.0969195000007,70.34743479999997,70.34743479999997,70.44878630000039,,,,,,,,,,,lalt,0,0.08658030000060535,None,70.4488664999999,70.44915780000065,,,044195,18,male,right,german,2024-10-23_13h56.15.156,demo_experiment,2024.2.3,60.085212848943684,2024-10-23 13h56.21.519019 +0200,
147,pseudoword,zurichgeschrafst,lalt,False,32,32,0,lalt,1,0.1248371000001498,None,,,,,0,32,32,293,70.46393630000057,,,,,,,,,70.45093330000054,70.7144001000006,71.21482509999987,71.44905329999983,71.44905329999983,71.5840263,,,,,,,,,,,lalt,1,0.1248371000001498,None,71.58408520000012,71.58428430000004,,,044195,18,male,right,german,2024-10-23_13h56.15.156,demo_experiment,2024.2.3,60.085212848943684,2024-10-23 13h56.21.519019 +0200,
32,word,Schwiegertochter,ralt,False,33,33,0,lalt,0,0.08310050000000047,None,,,,,0,33,33,62,71.59898290000001,,,,,,,,,71.58611290000044,71.84944210000049,72.3504808000007,72.58441210000001,72.58441210000001,72.6684008000002,,,,,,,,,,,lalt,0,0.08310050000000047,None,72.66850590000013,72.66882570000053,,,044195,18,male,right,german,2024-10-23_13h56.15.156,demo_experiment,2024.2.3,60.085212848943684,2024-10-23 13h56.21.519019 +0200,
33,word,Skonto,ralt,False,34,34,0,lalt,0,0.09824490000028163,None,,,,,0,34,34,64,72.6841346000001,,,,,,,,,72.67043830000057,72.91816030000064,73.41842140000062,73.6694236000003,73.6694236000003,73.77006720000008,,,,,,,,,,,lalt,0,0.09824490000028163,None,73.7701533999998,73.77041290000034,,,044195,18,male,right,german,2024-10-23_13h56.15.156,demo_experiment,2024.2.3,60.085212848943684,2024-10-23 13h56.21.519019 +0200,
60,word,auf,ralt,False,35,35,0,lalt,0,0.07078639999963343,None,,,,,0,35,35,118,73.78585370000019,,,,,,,,,73.77187610000055,74.0196778999998,74.5205117000005,74.7708376999999,74.7708376999999,74.85462590000043,,,,,,,,,,,lalt,0,0.07078639999963343,None,74.85468219999984,74.8548765000005,,,044195,18,male,right,german,2024-10-23_13h56.15.156,demo_experiment,2024.2.3,60.085212848943684,2024-10-23 13h56.21.519019 +0200,
101,word,jahrelanges,ralt,False,36,36,0,lalt,0,0.056604800000059186,None,,,,,0,36,36,200,74.8698672999999,,,,,,,,,74.85747280000032,75.10445609999988,75.6049450999999,75.8555266000003,75.8555266000003,75.92273680000017,,,,,,,,,,,lalt,0,0.056604800000059186,None,75.92281230000026,75.92307919999985,,,044195,18,male,right,german,2024-10-23_13h56.15.156,demo_experiment,2024.2.3,60.085212848943684,2024-10-23 13h56.21.519019 +0200,
58,word,antaten,ralt,False,37,37,0,lalt,0,0.07192550000036135,None,,,,,0,37,37,114,75.93858360000013,,,,,,,,,75.9263460000002,76.1728034000007,76.67305660000056,76.92376810000042,76.92376810000042,77.00742340000033,,,,,,,,,,,lalt,0,0.07192550000036135,None,77.00748209999983,77.00762060000034,,,044195,18,male,right,german,2024-10-23_13h56.15.156,demo_experiment,2024.2.3,60.085212848943684,2024-10-23 13h56.21.519019 +0200,
149,word,überlebensgroße,ralt,False,38,38,0,lalt,0,2.188340800000333,None,,,,,0,38,38,296,77.02446899999995,,,,,,,,,77.00988510000025,77.32664430000023,77.84170340000037,78.0098681999998,78.0098681999998,80.21361479999996,,,,,,,,,,,lalt,0,2.188340800000333,None,80.21368110000003,80.21389360000012,,,044195,18,male,right,german,2024-10-23_13h56.15.156,demo_experiment,2024.2.3,60.085212848943684,2024-10-23 13h56.21.519019 +0200,
130,pseudoword,vertolzen,lalt,False,39,39,0,lalt,1,0.1959643000000142,None,,,,,0,39,39,259,80.22908410000036,,,,,,,,,80.21541200000047,80.47990420000042,80.9802238000002,81.21388960000058,81.21388960000058,81.4148640000003,,,,,,,,,,,lalt,1,0.1959643000000142,None,81.41492389999985,81.41511189999983,,,044195,18,male,right,german,2024-10-23_13h56.15.156,demo_experiment,2024.2.3,60.085212848943684,2024-10-23 13h56.21.519019 +0200,
137,pseudoword,weutamme,lalt,False,40,40,0,lalt,1,0.07243609999932232,None,,,,,0,40,40,273,81.43033190000006,,,,,,,,,81.41650329999993,81.68103909999991,82.18160110000008,82.41535590000058,82.41535590000058,82.4998684000002,,,,,,,,,,,lalt,1,0.07243609999932232,None,82.49994779999997,82.50017990000015,,,044195,18,male,right,german,2024-10-23_13h56.15.156,demo_experiment,2024.2.3,60.085212848943684,2024-10-23 13h56.21.519019 +0200,
86,word,erziehst,ralt,False,41,41,0,ralt,1,0.008915599999454571,None,,,,,0,41,41,170,82.51596960000006,,,,,,,,,82.50223310000001,82.74916029999986,83.2507685999999,83.50045480000063,83.50045480000063,83.51795480000055,,,,,,,,,,,ralt,1,0.008915599999454571,None,83.51801160000014,83.51820140000018,,,044195,18,male,right,german,2024-10-23_13h56.15.156,demo_experiment,2024.2.3,60.085212848943684,2024-10-23 13h56.21.519019 +0200,
106,pseudoword,lebensrorgtich,lalt,False,42,42,0,lalt,1,0.013023200000134239,None,,,,,0,42,42,211,83.53405850000036,,,,,,,,,83.51999560000058,83.7680006999999,84.26806920000035,84.51909650000016,84.51909650000016,84.53650670000025,,,,,,,,,,,lalt,1,0.013023200000134239,None,84.53656529999989,84.53677080000034,,,044195,18,male,right,german,2024-10-23_13h56.15.156,demo_experiment,2024.2.3,60.085212848943684,2024-10-23 13h56.21.519019 +0200,
135,pseudoword,vorschrenntgadrig,lalt,False,43,43,0,lalt,1,0.01972089999981108,None,,,,,0,43,43,269,84.55186570000023,,,,,,,,,84.53837590000057,84.8023202000004,85.3038262,85.53701200000069,85.53701200000069,85.57081090000065,,,,,,,,,,,lalt,1,0.01972089999981108,None,85.57086640000034,85.57106470000053,,,044195,18,male,right,german,2024-10-23_13h56.15.156,demo_experiment,2024.2.3,60.085212848943684,2024-10-23 13h56.21.519019 +0200,
88,pseudoword,Hahnzusachen,lalt,False,44,44,0,ralt,0,0.04982509999990725,None,,,,,0,44,44,175,85.58736150000004,,,,,,,,,85.57282459999988,85.82108400000016,86.32138620000023,86.57233189999988,86.57233189999988,86.6392435000007,,,,,,,,,,,ralt,0,0.04982509999990725,None,86.63932110000042,86.63953930000025,,,044195,18,male,right,german,2024-10-23_13h56.15.156,demo_experiment,2024.2.3,60.085212848943684,2024-10-23 13h56.21.519019 +0200,
45,word,Vertragsabschlüssen,ralt,False,45,45,0,lalt,0,0.007694500000070548,None,,,,,0,45,45,88,86.65508219999992,,,,,,,,,86.6413106,86.88919090000036,87.38994470000034,87.64046390000021,87.64046390000021,87.6580554000002,,,,,,,,,,,lalt,0,0.007694500000070548,None,87.65813789999993,87.65839830000004,,,044195,18,male,right,german,2024-10-23_13h56.15.156,demo_experiment,2024.2.3,60.085212848943684,2024-10-23 13h56.21.519019 +0200,
24,word,Mühle,ralt,False,46,46,0,ralt,1,0.03150290000030509,None,,,,,0,46,46,46,87.67387240000062,,,,,,,,,87.6597096000005,87.9237892000001,88.42404930000066,88.65814190000037,88.65814190000037,88.69225370000004,,,,,,,,,,,ralt,1,0.03150290000030509,None,88.69233859999986,88.69256550000046,,,044195,18,male,right,german,2024-10-23_13h56.15.156,demo_experiment,2024.2.3,60.085212848943684,2024-10-23 13h56.21.519019 +0200,
114,word,rasselt,ralt,False,47,47,0,lalt,0,0.12501539999993838,None,,,,,0,47,47,226,88.70846270000038,,,,,,,,,88.69460870000057,88.94237010000052,89.4427641000002,89.69363200000043,89.69363200000043,89.82795020000049,,,,,,,,,,,lalt,0,0.12501539999993838,None,89.8280450000002,89.82823830000052,,,044195,18,male,right,german,2024-10-23_13h56.15.156,demo_experiment,2024.2.3,60.085212848943684,2024-10-23 13h56.21.519019 +0200,
84,pseudoword,erdaukegen,lalt,False,48,48,0,ralt,0,0.07622650000030262,None,,,,,0,48,48,167,89.84368530000029,,,,,,,,,89.83061400000042,90.09361470000022,90.59501470000032,90.82800580000003,90.82800580000003,90.91237450000062,,,,,,,,,,,ralt,0,0.07622650000030262,None,90.91243430000031,90.91263810000055,,,044195,18,male,right,german,2024-10-23_13h56.15.156,demo_experiment,2024.2.3,60.085212848943684,2024-10-23 13h56.21.519019 +0200,
68,pseudoword,haukirliges,lalt,False,49,49,0,lalt,1,0.047570400000040536,None,,,,,0,49,49,135,90.92842240000027,,,,,,,,,90.91422870000042,91.16235810000035,91.66224150000016,91.91304900000068,91.91304900000068,91.96403550000014,,,,,,,,,,,lalt,1,0.047570400000040536,None,91.964113,91.96433400000024,,,044195,18,male,right,german,2024-10-23_13h56.15.156,demo_experiment,2024.2.3,60.085212848943684,2024-10-23 13h56.21.519019 +0200,
93,pseudoword,wafspiges,lalt,False,50,50,0,ralt,0,0.045877999999902386,None,,,,,0,50,50,185,91.97999990000062,,,,,,,,,91.96613690000049,92.21372860000065,92.71472770000037,92.9654246,92.9654246,93.01603100000011,,,,,,,,,,,ralt,0,0.045877999999902386,None,96.01688770000055,96.01776260000042,,,044195,18,male,right,german,2024-10-23_13h56.15.156,demo_experiment,2024.2.3,60.085212848943684,2024-10-23 13h56.21.519019 +0200,
47,word,Vorbereitungen,ralt,False,51,51,0,ralt,1,0.08248410000032891,None,,,,,0,51,51,92,96.02291930000047,,,,,,,,,96.01948320000065,96.27010530000007,96.76981479999995,97.02011579999999,97.02011579999999,97.1042539,,,,,,,,,,,ralt,1,0.08248410000032891,None,97.10434440000063,97.1045482999998,,,044195,18,male,right,german,2024-10-23_13h56.15.156,demo_experiment,2024.2.3,60.085212848943684,2024-10-23 13h56.21.519019 +0200,
40,pseudoword,ponaobeumer,lalt,False,52,52,0,ralt,0,None,None,,,,,0,52,52,79,97.12034260000019,,,,,,,,,97.10639050000009,97.3540950000006,97.85552710000047,98.10521410000001,98.10521410000001,98.25600370000029,,,,,,,,,,,ralt,0,None,None,98.25607010000022,98.2562510000007,,,044195,18,male,right,german,2024-10-23_13h56.15.156,demo_experiment,2024.2.3,60.085212848943684,2024-10-23 13h56.21.519019 +0200,
132,pseudoword,berfrietere,lalt,False,53,53,0,ralt,0,0.08895329999995738,None,,,,,0,53,53,263,98.27195180000035,,,,,,,,,98.25769910000054,98.50574790000064,99.00640840000051,99.25716640000064,99.25716640000064,99.3577006000005,,,,,,,,,,,ralt,0,0.08895329999995738,None,99.35776400000032,99.35795169999983,,,044195,18,male,right,german,2024-10-23_13h56.15.156,demo_experiment,2024.2.3,60.085212848943684,2024-10-23 13h56.21.519019 +0200,
64,word,aufschrecken,ralt,False,54,54,0,ralt,1,0.17978190000030736,None,,,,,0,54,54,126,99.37352240000018,,,,,,,,,99.35950700000012,99.60755060000065,100.10814960000062,100.35896800000046,100.35896800000046,100.54300969999986,,,,,,,,,,,ralt,1,0.17978190000030736,None,100.54308769999989,100.54333850000057,,,044195,18,male,right,german,2024-10-23_13h56.15.156,demo_experiment,2024.2.3,60.085212848943684,2024-10-23 13h56.21.519019 +0200,
119,pseudoword,Schöchteckste,lalt,False,55,55,0,ralt,0,0.037886799999796494,None,,,,,0,55,55,237,100.55881490000047,,,,,,,,,100.54535399999986,100.79238090000035,101.2936849000007,101.54457340000044,101.54457340000044,101.59485940000013,,,,,,,,,,,ralt,0,0.037886799999796494,None,101.59493180000027,101.59509040000012,,,044195,18,male,right,german,2024-10-23_13h56.15.156,demo_experiment,2024.2.3,60.085212848943684,2024-10-23 13h56.21.519019 +0200,
17,word,Kontoauszug,ralt,False,56,56,0,ralt,1,0.12653899999986606,None,,,,,0,56,56,32,101.61043060000065,,,,,,,,,101.59674660000019,101.84405450000031,102.34477109999989,102.59580310000001,102.59580310000001,102.72952050000004,,,,,,,,,,,ralt,1,0.12653899999986606,None,102.72962590000043,102.7299466000004,,,044195,18,male,right,german,2024-10-23_13h56.15.156,demo_experiment,2024.2.3,60.085212848943684,2024-10-23 13h56.21.519019 +0200,
2,word,Drücker,ralt,False,57,57,0,ralt,1,0.07976049999979296,None,,,,,0,57,57,2,102.74560250000013,,,,,,,,,102.73169169999983,102.97922060000019,103.47983329999988,103.73011610000049,103.73011610000049,103.81446620000042,,,,,,,,,,,ralt,1,0.07976049999979296,None,103.81457039999987,103.81479940000008,,,044195,18,male,right,german,2024-10-23_13h56.15.156,demo_experiment,2024.2.3,60.085212848943684,2024-10-23 13h56.21.519019 +0200,
140,pseudoword,Austerbafer,lalt,False,58,58,0,ralt,0,0.10416910000003554,None,,,,,0,58,58,279,103.83188000000064,,,,,,,,,103.81716420000066,104.06460570000036,104.56511540000065,104.81540620000033,104.81540620000033,104.93373380000048,,,,,,,,,,,ralt,0,0.10416910000003554,None,104.93379790000017,104.93408120000004,,,044195,18,male,right,german,2024-10-23_13h56.15.156,demo_experiment,2024.2.3,60.085212848943684,2024-10-23 13h56.21.519019 +0200,
55,word,angegriffen,ralt,False,59,59,0,ralt,1,0.004088000000592729,None,,,,,0,59,59,108,104.94892250000066,,,,,,,,,104.93635810000069,105.1988478000003,105.70069700000022,105.93459090000033,105.93459090000033,105.95084709999992,,,,,,,,,,,ralt,1,0.004088000000592729,None,105.95091709999997,105.9511123000002,,,044195,18,male,right,german,2024-10-23_13h56.15.156,demo_experiment,2024.2.3,60.085212848943684,2024-10-23 13h56.21.519019 +0200,
124,pseudoword,nippakrisierst,lalt,False,60,60,0,ralt,0,0.061348300000645395,None,,,,,0,60,60,247,105.96801550000055,,,,,,,,,105.95259590000023,106.20047239999985,106.70139110000036,106.95197890000054,106.95197890000054,107.0187864999998,,,,,,,,,,,ralt,0,0.061348300000645395,None,107.0188392,107.01903980000043,,,044195,18,male,right,german,2024-10-23_13h56.15.156,demo_experiment,2024.2.3,60.085212848943684,2024-10-23 13h56.21.519019 +0200,
103,pseudoword,lenmalimieren,lalt,False,61,61,0,ralt,0,0.12774330000047485,None,,,,,0,61,61,205,107.03525549999995,,,,,,,,,107.02050380000037,107.26893010000003,107.76934960000017,108.02015399999982,108.02015399999982,108.15429010000025,,,,,,,,,,,ralt,0,0.12774330000047485,None,108.15436810000028,108.15470580000056,,,044195,18,male,right,german,2024-10-23_13h56.15.156,demo_experiment,2024.2.3,60.085212848943684,2024-10-23 13h56.21.519019 +0200,
114,pseudoword,messelt,lalt,False,62,62,0,ralt,0,0.11251630000060686,None,,,,,0,62,62,227,108.1712677000005,,,,,,,,,108.15610560000005,108.40426209999987,108.9041786000007,109.15534280000065,109.15534280000065,109.27264410000043,,,,,,,,,,,ralt,0,0.11251630000060686,None,109.27272360000006,109.27295270000013,,,044195,18,male,right,german,2024-10-23_13h56.15.156,demo_experiment,2024.2.3,60.085212848943684,2024-10-23 13h56.21.519019 +0200,
104,word,kreiere,ralt,False,63,63,0,ralt,1,0.12443350000012288,None,,,,,0,63,63,206,109.28998970000066,,,,,,,,,109.27427420000004,109.52255980000064,110.02301050000005,110.2739319000002,110.2739319000002,110.4078483000003,,,,,,,,,,,ralt,1,0.12443350000012288,None,110.4079255000006,110.40820050000002,,,044195,18,male,right,german,2024-10-23_13h56.15.156,demo_experiment,2024.2.3,60.085212848943684,2024-10-23 13h56.21.519019 +0200,
36,word,Staubwolke,ralt,False,64,64,0,ralt,1,0.12320139999974344,None,,,,,0,64,64,70,110.42376169999989,,,,,,,,,110.4100726000006,110.65769580000051,111.1583184000001,111.40851380000004,111.40851380000004,111.54304070000035,,,,,,,,,,,ralt,1,0.12320139999974344,None,111.54312410000057,111.54345290000037,,,044195,18,male,right,german,2024-10-23_13h56.15.156,demo_experiment,2024.2.3,60.085212848943684,2024-10-23 13h56.21.519019 +0200,
128,pseudoword,veragsweugungsßillen,lalt,False,65,65,0,ralt,0,0.018115300000317802,None,,,,,0,65,65,255,111.55952239999988,,,,,,,,,111.54609290000008,111.7929210000002,112.29305939999995,112.54369600000064,112.54369600000064,112.5779261000007,,,,,,,,,,,ralt,0,0.018115300000317802,None,112.57802489999995,112.57825320000029,,,044195,18,male,right,german,2024-10-23_13h56.15.156,demo_experiment,2024.2.3,60.085212848943684,2024-10-23 13h56.21.519019 +0200,
127,pseudoword,ungesegthent,lalt,False,66,66,0,ralt,0,0.050715800000034506,None,,,,,0,66,66,253,112.59380169999986,,,,,,,,,112.58037590000004,112.84417759999997,113.34483670000009,113.5789063000002,113.5789063000002,113.645896,,,,,,,,,,,ralt,0,0.050715800000034506,None,113.64597240000057,113.64618849999988,,,044195,18,male,right,german,2024-10-23_13h56.15.156,demo_experiment,2024.2.3,60.085212848943684,2024-10-23 13h56.21.519019 +0200,
92,word,füttere,ralt,False,67,67,0,ralt,1,0.07396349999999074,None,,,,,0,67,67,182,113.66198990000066,,,,,,,,,113.64778190000015,113.89668720000009,114.39649220000047,114.64672190000056,114.64672190000056,114.73056919999999,,,,,,,,,,,ralt,1,0.07396349999999074,None,114.7306464000003,114.73090620000039,,,044195,18,male,right,german,2024-10-23_13h56.15.156,demo_experiment,2024.2.3,60.085212848943684,2024-10-23 13h56.21.519019 +0200,
112,pseudoword,oßmiziivsem,lalt,False,68,68,0,ralt,0,0.13857960000041203,None,,,,,0,68,68,223,114.74625580000065,,,,,,,,,114.73344850000012,114.98082729999987,115.4814266000003,115.73216500000035,115.73216500000035,115.8835837000006,,,,,,,,,,,ralt,0,0.13857960000041203,None,115.88366170000063,115.88387220000004,,,044195,18,male,right,german,2024-10-23_13h56.15.156,demo_experiment,2024.2.3,60.085212848943684,2024-10-23 13h56.21.519019 +0200,
28,word,Rasters,ralt,False,69,69,0,ralt,1,0.17661889999999403,None,,,,,0,69,69,54,115.89890640000067,,,,,,,,,115.8856435000007,116.14890660000037,116.64987420000034,116.8838607000007,116.8838607000007,117.06844799999999,,,,,,,,,,,ralt,1,0.17661889999999403,None,117.06853850000061,117.06873559999985,,,044195,18,male,right,german,2024-10-23_13h56.15.156,demo_experiment,2024.2.3,60.085212848943684,2024-10-23 13h56.21.519019 +0200,
8,pseudoword,Gisiblase,lalt,False,70,70,0,ralt,0,0.1620161000000735,None,,,,,0,70,70,15,117.08394279999993,,,,,,,,,117.07078430000001,117.31707689999985,117.8185140000005,118.06852560000061,118.06852560000061,118.23614110000017,,,,,,,,,,,ralt,0,0.1620161000000735,None,118.23619950000011,118.2363533000007,,,044195,18,male,right,german,2024-10-23_13h56.15.156,demo_experiment,2024.2.3,60.085212848943684,2024-10-23 13h56.21.519019 +0200,
80,pseudoword,einspipfe,lalt,False,71,71,0,ralt,0,0.1691692000003968,None,,,,,0,71,71,159,118.25225930000033,,,,,,,,,118.23774740000044,118.48631550000027,118.98737880000044,119.23713390000012,119.23713390000012,119.42078810000021,,,,,,,,,,,ralt,0,0.1691692000003968,None,119.42084590000013,119.42100160000064,,,044195,18,male,right,german,2024-10-23_13h56.15.156,demo_experiment,2024.2.3,60.085212848943684,2024-10-23 13h56.21.519019 +0200,
31,word,Satz,ralt,False,72,72,0,ralt,1,0.15351780000037252,None,,,,,0,72,72,60,119.4374773999998,,,,,,,,,119.4223034000006,119.67092730000059,120.17211310000039,120.42278390000047,120.42278390000047,120.59050380000008,,,,,,,,,,,ralt,1,0.15351780000037252,None,120.59056650000002,120.59081520000018,,,044195,18,male,right,german,2024-10-23_13h56.15.156,demo_experiment,2024.2.3,60.085212848943684,2024-10-23 13h56.21.519019 +0200,
74,word,bewachten,ralt,False,73,73,0,ralt,1,0.0396534999999858,None,,,,,0,73,73,146,120.60646120000001,,,,,,,,,120.59230810000008,120.85636580000028,121.35673760000009,121.59047310000005,121.59047310000005,121.64139849999992,,,,,,,,,,,ralt,1,0.0396534999999858,None,121.64147750000029,121.64168340000015,,,044195,18,male,right,german,2024-10-23_13h56.15.156,demo_experiment,2024.2.3,60.085212848943684,2024-10-23 13h56.21.519019 +0200,
41,word,Touristen,ralt,False,74,74,0,ralt,1,0.03399820000049658,None,,,,,0,74,74,80,121.65769309999996,,,,,,,,,121.64309850000063,121.89162290000058,122.39216000000033,122.64168100000006,122.64168100000006,122.67636990000028,,,,,,,,,,,ralt,1,0.03399820000049658,None,122.67642310000065,122.67658519999986,,,044195,18,male,right,german,2024-10-23_13h56.15.156,demo_experiment,2024.2.3,60.085212848943684,2024-10-23 13h56.21.519019 +0200,
15,pseudoword,Toffegizu,lalt,False,75,75,0,ralt,0,0.01174520000040502,None,,,,,0,75,75,29,122.69355140000062,,,,,,,,,122.67835509999986,122.92624979999982,123.42700830000013,123.67709900000045,123.67709900000045,123.6951708000006,,,,,,,,,,,ralt,0,0.01174520000040502,None,123.69522710000001,123.69537850000052,,,044195,18,male,right,german,2024-10-23_13h56.15.156,demo_experiment,2024.2.3,60.085212848943684,2024-10-23 13h56.21.519019 +0200,
12,pseudoword,Kugendfrophs,lalt,False,76,76,0,ralt,0,0.06240620000062336,None,,,,,0,76,76,23,123.71078850000049,,,,,,,,,123.69691500000044,123.94403220000004,124.44555290000062,124.69572570000037,124.69572570000037,124.76281560000007,,,,,,,,,,,ralt,0,0.06240620000062336,None,124.76289840000027,124.76310270000067,,,044195,18,male,right,german,2024-10-23_13h56.15.156,demo_experiment,2024.2.3,60.085212848943684,2024-10-23 13h56.21.519019 +0200,
4,word,Exorzisten,ralt,False,77,77,0,ralt,1,0.028272300000026007,None,,,,,0,77,77,6,124.77845609999986,,,,,,,,,124.76472439999998,125.01206970000021,125.51355530000001,125.76448900000014,125.76448900000014,125.7980207999999,,,,,,,,,,,ralt,1,0.028272300000026007,None,125.7981262000003,125.79837430000043,,,044195,18,male,right,german,2024-10-23_13h56.15.156,demo_experiment,2024.2.3,60.085212848943684,2024-10-23 13h56.21.519019 +0200,
65,pseudoword,aufgleilt,lalt,False,78,78,0,ralt,0,0.027782199999819568,None,,,,,0,78,78,129,125.81365300000016,,,,,,,,,125.79997550000007,126.0641642999999,126.56607130000066,126.7986991000007,126.7986991000007,126.83300650000001,,,,,,,,,,,ralt,0,0.027782199999819568,None,126.83308190000025,126.83332060000066,,,044195,18,male,right,german,2024-10-23_13h56.15.156,demo_experiment,2024.2.3,60.085212848943684,2024-10-23 13h56.21.519019 +0200,
145,word,zuflüstern,ralt,False,79,79,0,ralt,1,0.0006198000000949833,None,,,,,0,79,79,288,126.84910420000051,,,,,,,,,126.8359973000006,127.08333399999992,127.58361550000063,127.83506900000066,127.83506900000066,127.83642490000057,,,,,,,,,,,ralt,1,0.0006198000000949833,None,127.83648220000032,127.83670119999988,,,044195,18,male,right,german,2024-10-23_13h56.15.156,demo_experiment,2024.2.3,60.085212848943684,2024-10-23 13h56.21.519019 +0200,
63,pseudoword,aussaden,lalt,False,80,80,0,ralt,0,0.1881585000000996,None,,,,,0,80,80,125,127.85023470000033,,,,,,,,,127.83817760000056,128.1010294000007,128.60118570000031,128.8518586,128.8518586,129.05295250000017,,,,,,,,,,,ralt,0,0.1881585000000996,None,129.0530147999998,129.05329919999986,,,044195,18,male,right,german,2024-10-23_13h56.15.156,demo_experiment,2024.2.3,60.085212848943684,2024-10-23 13h56.21.519019 +0200,
37,word,Straßenmädchen,ralt,False,81,81,0,ralt,1,0.0903491999997641,None,,,,,0,81,81,72,129.06868020000002,,,,,,,,,129.0550030000004,129.30248540000048,129.80391250000048,130.05454180000015,130.05454180000015,130.15412379999998,,,,,,,,,,,ralt,1,0.0903491999997641,None,130.1542300000001,130.1544797000006,,,044195,18,male,right,german,2024-10-23_13h56.15.156,demo_experiment,2024.2.3,60.085212848943684,2024-10-23 13h56.21.519019 +0200,
146,word,zurechtgebogen,ralt,False,82,82,0,ralt,1,0.006650100000115344,None,,,,,0,82,82,290,130.16994299999988,,,,,,,,,130.15684740000052,130.4039926000005,130.90551480000067,131.15616510000018,131.15616510000018,131.1726808000003,,,,,,,,,,,ralt,1,0.006650100000115344,None,131.17275490000065,131.17301970000062,,,044195,18,male,right,german,2024-10-23_13h56.15.156,demo_experiment,2024.2.3,60.085212848943684,2024-10-23 13h56.21.519019 +0200,
61,pseudoword,auseinanterchinnen,lalt,False,83,83,0,ralt,0,0.21127549999982875,None,,,,,0,83,83,121,131.18973330000063,,,,,,,,,131.17463320000024,131.42245840000032,131.92289059999985,132.17321270000048,132.17321270000048,132.39093500000035,,,,,,,,,,,ralt,0,0.21127549999982875,None,132.3909936,132.39120430000003,,,044195,18,male,right,german,2024-10-23_13h56.15.156,demo_experiment,2024.2.3,60.085212848943684,2024-10-23 13h56.21.519019 +0200,
56,word,angezogen,ralt,False,84,84,0,ralt,1,0.11606029999984457,None,,,,,0,84,84,110,132.4072471999998,,,,,,,,,132.3927564000005,132.6408562000006,133.14216060000035,133.39210809999986,133.39210809999986,133.50939730000027,,,,,,,,,,,ralt,1,0.11606029999984457,None,133.50945219999994,133.50963860000047,,,044195,18,male,right,german,2024-10-23_13h56.15.156,demo_experiment,2024.2.3,60.085212848943684,2024-10-23 13h56.21.519019 +0200,
15,word,Kollegium,ralt,False,85,85,0,ralt,1,0.15429949999997916,None,,,,,0,85,85,28,133.52650380000068,,,,,,,,,133.51104870000017,133.75904330000049,134.2597377000002,134.5105899,134.5105899,134.67827840000064,,,,,,,,,,,ralt,1,0.15429949999997916,None,134.67837450000025,134.67855320000035,,,044195,18,male,right,german,2024-10-23_13h56.15.156,demo_experiment,2024.2.3,60.085212848943684,2024-10-23 13h56.21.519019 +0200,
133,word,verzeichnet,ralt,False,86,86,0,ralt,1,0.0696631000000707,None,,,,,0,86,86,264,134.6939452000006,,,,,,,,,134.6802086000007,134.92727240000022,135.42848810000032,135.6785875000005,135.6785875000005,135.7626362000001,,,,,,,,,,,ralt,1,0.0696631000000707,None,135.76269349999984,135.76288639999984,,,044195,18,male,right,german,2024-10-23_13h56.15.156,demo_experiment,2024.2.3,60.085212848943684,2024-10-23 13h56.21.519019 +0200,
82,pseudoword,itzgegerfonwende,lalt,False,87,87,0,ralt,0,0.05209629999990284,None,,,,,0,87,87,163,135.7788446000004,,,,,,,,,135.76506580000023,136.01272710000012,136.51355020000028,136.76422559999992,136.76422559999992,136.83202270000038,,,,,,,,,,,ralt,0,0.05209629999990284,None,136.83209960000022,136.83240410000053,,,044195,18,male,right,german,2024-10-23_13h56.15.156,demo_experiment,2024.2.3,60.085212848943684,2024-10-23 13h56.21.519019 +0200,
79,pseudoword,einpellsten,lalt,False,88,88,0,ralt,0,0.1413620000002993,None,,,,,0,88,88,157,136.84711289999996,,,,,,,,,136.83418919999986,137.09792340000058,137.59839460000057,137.83219410000038,137.83219410000038,137.98283140000058,,,,,,,,,,,ralt,0,0.1413620000002993,None,137.98292140000012,137.98309320000044,,,044195,18,male,right,german,2024-10-23_13h56.15.156,demo_experiment,2024.2.3,60.085212848943684,2024-10-23 13h56.21.519019 +0200,
25,pseudoword,Pachtaftagen,lalt,False,89,89,0,ralt,0,0.044592300000658724,None,,,,,0,89,89,49,137.99904550000065,,,,,,,,,137.98553320000065,138.23223250000046,138.73329660000036,138.9831533000006,138.9831533000006,139.0345825000004,,,,,,,,,,,ralt,0,0.044592300000658724,None,139.03465500000038,139.03490320000037,,,044195,18,male,right,german,2024-10-23_13h56.15.156,demo_experiment,2024.2.3,60.085212848943684,2024-10-23 13h56.21.519019 +0200,
88,word,festzumachen,ralt,False,90,90,0,ralt,1,0.005435600000055274,None,,,,,0,90,90,174,139.0515019000004,,,,,,,,,139.03673440000057,139.28445480000028,139.78521200000068,140.03522060000068,140.03522060000068,140.05305020000014,,,,,,,,,,,ralt,1,0.005435600000055274,None,140.0531732999998,140.0534372000002,,,044195,18,male,right,german,2024-10-23_13h56.15.156,demo_experiment,2024.2.3,60.085212848943684,2024-10-23 13h56.21.519019 +0200,
13,word,Kanaille,ralt,False,91,91,0,ralt,1,0.01664139999957115,None,,,,,0,91,91,24,140.06824570000026,,,,,,,,,140.05532010000024,140.3193941999998,140.8192165999999,141.05344839999998,141.05344839999998,141.07073690000016,,,,,,,,,,,ralt,1,0.01664139999957115,None,141.07078880000063,141.0709354999999,,,044195,18,male,right,german,2024-10-23_13h56.15.156,demo_experiment,2024.2.3,60.085212848943684,2024-10-23 13h56.21.519019 +0200,
30,pseudoword,Räckgen,lalt,False,92,92,0,ralt,0,0.01719559999946796,None,,,,,0,92,92,59,141.0869475999998,,,,,,,,,141.0725355000004,141.32104130000062,141.82126130000051,142.07220420000067,142.07220420000067,142.1055821,,,,,,,,,,,ralt,0,0.01719559999946796,None,142.10565880000013,142.10587750000013,,,044195,18,male,right,german,2024-10-23_13h56.15.156,demo_experiment,2024.2.3,60.085212848943684,2024-10-23 13h56.21.519019 +0200,
48,pseudoword,dössermatten,lalt,False,93,93,0,ralt,0,0.27837950000048295,None,,,,,0,93,93,95,142.12156080000022,,,,,,,,,142.1078253000005,142.35536690000026,142.8559647000002,143.1068860000005,143.1068860000005,143.39053800000056,,,,,,,,,,,ralt,0,0.27837950000048295,None,143.39062000000013,143.3907975000002,,,044195,18,male,right,german,2024-10-23_13h56.15.156,demo_experiment,2024.2.3,60.085212848943684,2024-10-23 13h56.21.519019 +0200,
110,pseudoword,quaserbesprugen,lalt,False,94,94,0,ralt,0,0.16635020000012446,None,,,,,0,94,94,219,143.4077127999999,,,,,,,,,143.39370340000005,143.6404465000005,144.1411710000002,144.3920162000004,144.3920162000004,144.55945770000017,,,,,,,,,,,ralt,0,0.16635020000012446,None,144.5595400000002,144.55984590000025,,,044195,18,male,right,german,2024-10-23_13h56.15.156,demo_experiment,2024.2.3,60.085212848943684,2024-10-23 13h56.21.519019 +0200,
134,word,verzieren,ralt,False,95,95,0,ralt,1,0.009058599999661965,None,,,,,0,95,95,266,144.57573860000048,,,,,,,,,144.5619383000003,144.80939829999988,145.3098832000005,145.56017900000006,145.56017900000006,145.57820110000011,,,,,,,,,,,ralt,1,0.009058599999661965,None,145.5782788000006,145.57850510000026,,,044195,18,male,right,german,2024-10-23_13h56.15.156,demo_experiment,2024.2.3,60.085212848943684,2024-10-23 13h56.21.519019 +0200,
97,word,haltmachen,ralt,False,96,96,0,ralt,1,0.09345159999975294,None,,,,,0,96,96,192,145.5944229000006,,,,,,,,,145.5804321000005,145.84406089999993,146.34456360000058,146.57953530000032,146.57953530000032,146.6790587000005,,,,,,,,,,,ralt,1,0.09345159999975294,None,146.67913370000042,146.67936890000055,,,044195,18,male,right,german,2024-10-23_13h56.15.156,demo_experiment,2024.2.3,60.085212848943684,2024-10-23 13h56.21.519019 +0200,
104,pseudoword,greaade,lalt,False,97,97,0,ralt,0,0.5970337999997355,None,,,,,0,97,97,207,146.69526860000042,,,,,,,,,146.6811357000006,146.92932050000036,147.42968540000038,147.6805342000007,147.6805342000007,148.28193910000027,,,,,,,,,,,ralt,0,0.5970337999997355,None,148.28202330000022,148.28224080000018,,,044195,18,male,right,german,2024-10-23_13h56.15.156,demo_experiment,2024.2.3,60.085212848943684,2024-10-23 13h56.21.519019 +0200,
117,pseudoword,schrordelte,lalt,False,98,98,0,ralt,0,0.002956399999675341,None,,,,,0,98,98,233,148.2981305000003,,,,,,,,,148.2842496000003,148.5305801000004,149.0323685000003,149.28231360000063,149.28231360000063,149.30012940000051,,,,,,,,,,,ralt,0,0.002956399999675341,None,149.30020260000038,149.30046540000058,,,044195,18,male,right,german,2024-10-23_13h56.15.156,demo_experiment,2024.2.3,60.085212848943684,2024-10-23 13h56.21.519019 +0200,
14,word,Kanäle,ralt,False,99,99,0,ralt,1,0.17105650000030437,None,,,,,0,99,99,26,149.31754510000064,,,,,,,,,149.30227259999992,149.5497264000005,150.05030510000051,150.30095260000053,150.30095260000053,150.485232,,,,,,,,,,,ralt,1,0.17105650000030437,None,150.48530910000045,150.4855103,,,044195,18,male,right,german,2024-10-23_13h56.15.156,demo_experiment,2024.2.3,60.085212848943684,2024-10-23 13h56.21.519019 +0200,
93,word,garstiges,ralt,False,100,100,0,ralt,1,0.19164490000002843,None,,,,,0,100,100,184,150.5012273000002,,,,,,,,,150.48748820000037,150.75109430000066,151.25256340000033,151.48586220000016,151.48586220000016,151.68735930000003,,,,,,,,,,,ralt,1,0.19164490000002843,None,156.15503100000024,156.15650460000052,,,044195,18,male,right,german,2024-10-23_13h56.15.156,demo_experiment,2024.2.3,60.085212848943684,2024-10-23 13h56.21.519019 +0200,
72,pseudoword,begeichsten,lalt,False,101,101,0,ralt,0,0.16990219999934197,None,,,,,0,101,101,143,156.16137880000042,,,,,,,,,156.15801809999994,156.41449170000033,156.91463870000007,157.1649505000005,157.1649505000005,157.3487664000004,,,,,,,,,,,ralt,0,0.16990219999934197,None,157.3488470000002,157.34908360000009,,,044195,18,male,right,german,2024-10-23_13h56.15.156,demo_experiment,2024.2.3,60.085212848943684,2024-10-23 13h56.21.519019 +0200,
35,pseudoword,fopfeträrger,lalt,False,102,102,0,ralt,0,0.0655268000000433,None,,,,,0,102,102,69,157.36454910000066,,,,,,,,,157.35114220000014,157.59915490000003,158.0995008,158.34982600000058,158.34982600000058,158.4177911000006,,,,,,,,,,,ralt,0,0.0655268000000433,None,158.41784910000024,158.41800599999988,,,044195,18,male,right,german,2024-10-23_13h56.15.156,demo_experiment,2024.2.3,60.085212848943684,2024-10-23 13h56.21.519019 +0200,
71,word,beliebteren,ralt,False,103,103,0,ralt,1,0.14695659999961208,None,,,,,0,103,103,140,158.43312200000037,,,,,,,,,158.41948480000065,158.68390160000035,159.18434390000039,159.41817460000038,159.41817460000038,159.5689970000003,,,,,,,,,,,ralt,1,0.14695659999961208,None,159.56910750000043,159.56932469999992,,,044195,18,male,right,german,2024-10-23_13h56.15.156,demo_experiment,2024.2.3,60.085212848943684,2024-10-23 13h56.21.519019 +0200,
27,word,Pocken,ralt,False,104,104,0,lalt,0,0.17453170000044338,None,,,,,0,104,104,52,159.58515630000056,,,,,,,,,159.57180400000016,159.8189196000003,160.31936610000048,160.5701454,160.5701454,160.75418030000037,,,,,,,,,,,lalt,0,0.17453170000044338,None,160.7542583000004,160.75450290000026,,,044195,18,male,right,german,2024-10-23_13h56.15.156,demo_experiment,2024.2.3,60.085212848943684,2024-10-23 13h56.21.519019 +0200,
97,pseudoword,höfflachen,lalt,False,105,105,0,lalt,1,0.08906649999971705,None,,,,,0,105,105,193,160.77028669999982,,,,,,,,,160.75603779999983,161.0045600000003,161.50499900000068,161.7548706000007,161.7548706000007,161.85573320000003,,,,,,,,,,,lalt,1,0.08906649999971705,None,161.8557926000003,161.85597589999998,,,044195,18,male,right,german,2024-10-23_13h56.15.156,demo_experiment,2024.2.3,60.085212848943684,2024-10-23 13h56.21.519019 +0200,
146,pseudoword,zunandsgewägen,lalt,False,106,106,0,lalt,1,0.005986500000290107,None,,,,,0,106,106,291,161.8719458000005,,,,,,,,,161.85769080000046,162.10609569999997,162.60679510000045,162.8563008000001,162.8563008000001,162.87387600000056,,,,,,,,,,,lalt,1,0.005986500000290107,None,162.87395220000053,162.87419769999997,,,044195,18,male,right,german,2024-10-23_13h56.15.156,demo_experiment,2024.2.3,60.085212848943684,2024-10-23 13h56.21.519019 +0200,
26,word,Parzellen,ralt,False,107,107,0,lalt,0,0.15288650000002235,None,,,,,0,107,107,50,162.88939840000057,,,,,,,,,162.87563670000054,163.12371930000063,163.62452570000005,163.87507170000026,163.87507170000026,164.04234439999982,,,,,,,,,,,lalt,0,0.15288650000002235,None,164.04240910000044,164.0425868000002,,,044195,18,male,right,german,2024-10-23_13h56.15.156,demo_experiment,2024.2.3,60.085212848943684,2024-10-23 13h56.21.519019 +0200,
19,word,Lobpreisung,ralt,False,108,108,0,lalt,0,0.09544019999975717,None,,,,,0,108,108,36,164.05864340000062,,,,,,,,,164.0443296000003,164.29247120000036,164.79291130000001,165.04303440000058,165.04303440000058,165.14424680000047,,,,,,,,,,,lalt,0,0.09544019999975717,None,165.14432709999983,165.14450970000053,,,044195,18,male,right,german,2024-10-23_13h56.15.156,demo_experiment,2024.2.3,60.085212848943684,2024-10-23 13h56.21.519019 +0200,
33,pseudoword,Knolto,lalt,False,109,109,0,lalt,1,0.14374989999942045,None,,,,,0,109,109,65,165.16023980000045,,,,,,,,,165.1457919000004,165.39433999999983,165.89493740000034,166.14459820000047,166.14459820000047,166.29635790000066,,,,,,,,,,,lalt,1,0.14374989999942045,None,166.29643680000027,166.29665530000057,,,044195,18,male,right,german,2024-10-23_13h56.15.156,demo_experiment,2024.2.3,60.085212848943684,2024-10-23 13h56.21.519019 +0200,
141,pseudoword,pulderstrüse,lalt,False,110,110,0,lalt,1,0.005599099999926693,None,,,,,0,110,110,281,166.31216500000028,,,,,,,,,166.29823140000008,166.56324230000064,167.0637099000005,167.29646390000016,167.29646390000016,167.3141609000004,,,,,,,,,,,lalt,1,0.005599099999926693,None,167.31423619999987,167.3144272999998,,,044195,18,male,right,german,2024-10-23_13h56.15.156,demo_experiment,2024.2.3,60.085212848943684,2024-10-23 13h56.21.519019 +0200,
129,pseudoword,verligtet,lalt,False,111,111,0,lalt,1,0.14251229999990755,None,,,,,0,111,111,257,167.3305092999999,,,,,,,,,167.31597860000056,167.5641215000005,168.06464610000057,168.31429260000004,168.31429260000004,168.46598640000047,,,,,,,,,,,lalt,1,0.14251229999990755,None,168.46609050000006,168.46640019999995,,,044195,18,male,right,german,2024-10-23_13h56.15.156,demo_experiment,2024.2.3,60.085212848943684,2024-10-23 13h56.21.519019 +0200,
91,word,fortbleiben,ralt,False,112,112,0,lalt,0,0.1485898000000816,None,,,,,0,112,112,180,168.4819250999999,,,,,,,,,168.46843340000032,168.7155827000006,169.21657360000063,169.46754370000053,169.46754370000053,169.61770510000042,,,,,,,,,,,lalt,0,0.1485898000000816,None,169.6177647000004,169.61792610000066,,,044195,18,male,right,german,2024-10-23_13h56.15.156,demo_experiment,2024.2.3,60.085212848943684,2024-10-23 13h56.21.519019 +0200,
143,word,zerrinnen,ralt,False,113,113,0,lalt,0,0.13749579999966954,None,,,,,0,113,113,284,169.63464170000043,,,,,,,,,169.6192805999999,169.8673957000001,170.36778349999986,170.6186032000005,170.6186032000005,170.7690290999999,,,,,,,,,,,lalt,0,0.13749579999966954,None,170.76910420000058,170.76930290000018,,,044195,18,male,right,german,2024-10-23_13h56.15.156,demo_experiment,2024.2.3,60.085212848943684,2024-10-23 13h56.21.519019 +0200,
43,word,Ungetüme,ralt,False,114,114,0,lalt,0,0.1320768000005046,None,,,,,0,114,114,84,170.7858326000005,,,,,,,,,170.77162339999995,171.01905179999994,171.52114400000028,171.77027690000068,171.77027690000068,171.90456090000043,,,,,,,,,,,lalt,0,0.1320768000005046,None,171.90461719999985,171.90480280000065,,,044195,18,male,right,german,2024-10-23_13h56.15.156,demo_experiment,2024.2.3,60.085212848943684,2024-10-23 13h56.21.519019 +0200,
61,word,aufeinanderprallen,ralt,False,115,115,0,lalt,0,0.13465160000032483,None,,,,,0,115,115,120,171.92042589999983,,,,,,,,,171.90698310000062,172.15421120000065,172.65462910000042,172.9055745000005,172.9055745000005,173.05656660000022,,,,,,,,,,,lalt,0,0.13465160000032483,None,173.05664310000066,173.05680269999993,,,044195,18,male,right,german,2024-10-23_13h56.15.156,demo_experiment,2024.2.3,60.085212848943684,2024-10-23 13h56.21.519019 +0200,
62,pseudoword,aushürliges,lalt,False,116,116,0,lalt,1,0.20585960000062187,None,,,,,0,116,116,123,173.07234030000018,,,,,,,,,173.05921970000054,173.30640159999984,173.8069303000002,174.0577116000004,174.0577116000004,174.2758657000004,,,,,,,,,,,lalt,1,0.20585960000062187,None,174.27594959999988,174.27622470000006,,,044195,18,male,right,german,2024-10-23_13h56.15.156,demo_experiment,2024.2.3,60.085212848943684,2024-10-23 13h56.21.519019 +0200,
129,word,vergeltet,ralt,False,117,117,0,lalt,0,0.07380690000081813,None,,,,,0,117,117,256,174.29049329999998,,,,,,,,,174.27773479999996,174.52485010000055,175.0253756000002,175.29240519999985,175.29240519999985,175.3770783,,,,,,,,,,,lalt,0,0.07380690000081813,None,175.37713560000066,175.37732510000023,,,044195,18,male,right,german,2024-10-23_13h56.15.156,demo_experiment,2024.2.3,60.085212848943684,2024-10-23 13h56.21.519019 +0200,
30,word,Röntgen,ralt,False,118,118,0,lalt,0,0.16993170000023383,None,,,,,0,118,118,58,175.39230700000007,,,,,,,,,175.37879650000013,175.64216699999997,176.14336880000064,176.37732490000053,176.37732490000053,176.56153210000048,,,,,,,,,,,lalt,0,0.16993170000023383,None,176.56159079999998,176.56178160000036,,,044195,18,male,right,german,2024-10-23_13h56.15.156,demo_experiment,2024.2.3,60.085212848943684,2024-10-23 13h56.21.519019 +0200,
57,pseudoword,abbeßen,lalt,False,119,119,0,lalt,1,0.2269021000001885,None,,,,,0,119,119,113,176.5778138000005,,,,,,,,,176.5635927000003,176.8107872999999,177.3121971999999,177.56201529999998,177.56201529999998,177.79681260000052,,,,,,,,,,,lalt,1,0.2269021000001885,None,177.79688859999987,177.79714820000027,,,044195,18,male,right,german,2024-10-23_13h56.15.156,demo_experiment,2024.2.3,60.085212848943684,2024-10-23 13h56.21.519019 +0200,
109,pseudoword,paxudotikrischen,lalt,False,120,120,0,lalt,1,0.03456050000022515,None,,,,,0,120,120,217,177.8128373999998,,,,,,,,,177.7998736999998,178.04675660000066,178.54820130000007,178.79805660000056,178.79805660000056,178.8482251000005,,,,,,,,,,,lalt,1,0.03456050000022515,None,178.84829810000065,178.8485438000007,,,044195,18,male,right,german,2024-10-23_13h56.15.156,demo_experiment,2024.2.3,60.085212848943684,2024-10-23 13h56.21.519019 +0200,
4,pseudoword,ucinzisten,lalt,False,121,121,0,lalt,1,0.25303170000006503,None,,,,,0,121,121,7,178.8640916000004,,,,,,,,,178.8500967,179.09783289999996,179.59859060000053,179.84925060000023,179.84925060000023,180.11778540000068,,,,,,,,,,,lalt,1,0.25303170000006503,None,180.11786120000033,180.1181827999999,,,044195,18,male,right,german,2024-10-23_13h56.15.156,demo_experiment,2024.2.3,60.085212848943684,2024-10-23 13h56.21.519019 +0200,
40,word,Tonabnehmer,ralt,False,122,122,0,lalt,0,0.03592850000040926,None,,,,,0,122,122,78,180.1329956999998,,,,,,,,,180.11984440000015,180.36702960000002,180.86720229999992,181.11779550000028,181.11779550000028,181.16873279999982,,,,,,,,,,,lalt,0,0.03592850000040926,None,181.16883320000034,181.16912630000024,,,044195,18,male,right,german,2024-10-23_13h56.15.156,demo_experiment,2024.2.3,60.085212848943684,2024-10-23 13h56.21.519019 +0200,
49,word,Wäscheklammer,ralt,False,123,123,0,lalt,0,0.00819249999949534,None,,,,,0,123,123,96,181.18426490000002,,,,,,,,,181.1712064000003,181.4346826000001,181.9351744000005,182.16908930000045,182.16908930000045,182.18674790000023,,,,,,,,,,,lalt,0,0.00819249999949534,None,182.18681939999988,182.18707650000033,,,044195,18,male,right,german,2024-10-23_13h56.15.156,demo_experiment,2024.2.3,60.085212848943684,2024-10-23 13h56.21.519019 +0200,
134,pseudoword,verkauben,lalt,False,124,124,0,lalt,1,0.052877600000101666,None,,,,,0,124,124,267,182.2025502000006,,,,,,,,,182.1893925000004,182.43655769999987,182.93749900000057,183.18785190000017,183.18785190000017,183.25586999999996,,,,,,,,,,,lalt,1,0.052877600000101666,None,183.25594850000016,183.25636420000046,,,044195,18,male,right,german,2024-10-23_13h56.15.156,demo_experiment,2024.2.3,60.085212848943684,2024-10-23 13h56.21.519019 +0200,
53,word,addierst,ralt,False,125,125,0,lalt,0,0.2622814999995171,None,,,,,0,125,125,104,183.27102090000062,,,,,,,,,183.25774710000042,183.52135270000053,184.02206380000007,184.2559949000006,184.2559949000006,184.52311550000013,,,,,,,,,,,lalt,0,0.2622814999995171,None,184.52319440000065,184.52342409999983,,,044195,18,male,right,german,2024-10-23_13h56.15.156,demo_experiment,2024.2.3,60.085212848943684,2024-10-23 13h56.21.519019 +0200,
52,pseudoword,anhangslichen,lalt,False,126,126,0,lalt,1,0.06676020000031713,None,,,,,0,126,126,103,184.53980990000036,,,,,,,,,184.52526680000028,184.77355820000048,185.27478239999982,185.52444319999995,185.52444319999995,185.60834700000032,,,,,,,,,,,lalt,1,0.06676020000031713,None,185.6084006000001,185.60856010000043,,,044195,18,male,right,german,2024-10-23_13h56.15.156,demo_experiment,2024.2.3,60.085212848943684,2024-10-23 13h56.21.519019 +0200,
120,word,siegle,ralt,False,127,127,0,lalt,0,0.1119381999997131,None,,,,,0,127,127,238,185.62427340000067,,,,,,,,,185.60998569999992,185.85836980000022,186.35866400000032,186.60967020000044,186.60967020000044,186.7266153999999,,,,,,,,,,,lalt,0,0.1119381999997131,None,186.7266798999999,186.7268750000003,,,044195,18,male,right,german,2024-10-23_13h56.15.156,demo_experiment,2024.2.3,60.085212848943684,2024-10-23 13h56.21.519019 +0200,
120,pseudoword,seifle,lalt,False,128,128,0,lalt,1,0.08374460000050021,None,,,,,0,128,128,239,186.74297530000058,,,,,,,,,186.72829120000006,186.97774440000012,187.4768640000002,187.72770620000028,187.72770620000028,187.82837420000033,,,,,,,,,,,lalt,1,0.08374460000050021,None,187.82843349999985,187.82858430000033,,,044195,18,male,right,german,2024-10-23_13h56.15.156,demo_experiment,2024.2.3,60.085212848943684,2024-10-23 13h56.21.519019 +0200,
118,pseudoword,schirste,lalt,False,129,129,0,lalt,1,0.019283399999949324,None,,,,,0,129,129,235,187.84438820000014,,,,,,,,,187.83027740000034,188.07810210000025,188.57900599999994,188.82945180000024,188.82945180000024,188.86396800000057,,,,,,,,,,,lalt,1,0.019283399999949324,None,188.8640417000006,188.86429810000027,,,044195,18,male,right,german,2024-10-23_13h56.15.156,demo_experiment,2024.2.3,60.085212848943684,2024-10-23 13h56.21.519019 +0200,
14,pseudoword,Gamäse,lalt,False,130,130,0,lalt,1,0.20990569999958097,None,,,,,0,130,130,27,188.87935000000016,,,,,,,,,188.86588670000037,189.12991150000016,189.63102030000027,189.86513879999984,189.86513879999984,190.08213930000056,,,,,,,,,,,lalt,1,0.20990569999958097,None,190.08221560000038,190.08241090000047,,,044195,18,male,right,german,2024-10-23_13h56.15.156,demo_experiment,2024.2.3,60.085212848943684,2024-10-23 13h56.21.519019 +0200,
63,word,auflasen,ralt,False,131,131,0,lalt,0,0.24779060000037134,None,,,,,0,131,131,124,190.0983801000002,,,,,,,,,190.08444020000024,190.34868820000065,190.84908760000053,191.0830205000002,191.0830205000002,191.33395840000048,,,,,,,,,,,lalt,0,0.24779060000037134,None,191.3340675999998,191.33435129999998,,,044195,18,male,right,german,2024-10-23_13h56.15.156,demo_experiment,2024.2.3,60.085212848943684,2024-10-23 13h56.21.519019 +0200,
1,word,Akzente,ralt,False,132,132,0,lalt,0,0.09072990000004211,None,,,,,0,132,132,0,191.34992200000033,,,,,,,,,191.3362963999998,191.60032430000047,192.10091360000024,192.33503120000023,192.33503120000023,192.4354028000007,,,,,,,,,,,lalt,0,0.09072990000004211,None,192.43547780000063,192.4356759000002,,,044195,18,male,right,german,2024-10-23_13h56.15.156,demo_experiment,2024.2.3,60.085212848943684,2024-10-23 13h56.21.519019 +0200,
49,pseudoword,gäschephirmer,lalt,False,133,133,0,lalt,1,0.0433588999994754,None,,,,,0,133,133,97,192.45126210000035,,,,,,,,,192.4376339999999,192.6852813000005,193.18677170000046,193.43654980000065,193.43654980000065,193.48746370000026,,,,,,,,,,,lalt,1,0.0433588999994754,None,193.48754199999985,193.48782160000064,,,044195,18,male,right,german,2024-10-23_13h56.15.156,demo_experiment,2024.2.3,60.085212848943684,2024-10-23 13h56.21.519019 +0200,
111,word,niederzuhalten,ralt,False,134,134,0,lalt,0,0.09175609999965673,None,,,,,0,134,134,220,193.50273759999982,,,,,,,,,193.4897735000004,193.7545678000006,194.2540067,194.48818089999986,194.48818089999986,194.58962060000067,,,,,,,,,,,lalt,0,0.09175609999965673,None,194.58970240000053,194.58992399999988,,,044195,18,male,right,german,2024-10-23_13h56.15.156,demo_experiment,2024.2.3,60.085212848943684,2024-10-23 13h56.21.519019 +0200,
35,word,Sowjetbürger,ralt,False,135,135,0,lalt,0,0.18944159999955446,None,,,,,0,135,135,68,194.60477160000028,,,,,,,,,194.59178909999991,194.85550860000058,195.35562819999996,195.58966099999998,195.58966099999998,195.79263470000024,,,,,,,,,,,lalt,0,0.18944159999955446,None,195.7927221,195.7929522000004,,,044195,18,male,right,german,2024-10-23_13h56.15.156,demo_experiment,2024.2.3,60.085212848943684,2024-10-23 13h56.21.519019 +0200,
112,word,offiziellem,ralt,False,136,136,0,lalt,0,0.06155289999969682,None,,,,,0,136,136,222,195.80627820000063,,,,,,,,,195.79500370000005,196.05735679999998,196.55778220000047,196.8077057999999,196.8077057999999,196.87656040000002,,,,,,,,,,,lalt,0,0.06155289999969682,None,196.87663220000013,196.8768699000002,,,044195,18,male,right,german,2024-10-23_13h56.15.156,demo_experiment,2024.2.3,60.085212848943684,2024-10-23 13h56.21.519019 +0200,
150,word,überlisten,ralt,False,137,137,0,lalt,0,0.0209288000005472,None,,,,,0,137,137,298,196.8914525,,,,,,,,,196.87864369999988,197.14237709999998,197.64273460000004,197.87674419999985,197.87674419999985,197.91126350000013,,,,,,,,,,,lalt,0,0.0209288000005472,None,197.91133750000063,197.91165180000007,,,044195,18,male,right,german,2024-10-23_13h56.15.156,demo_experiment,2024.2.3,60.085212848943684,2024-10-23 13h56.21.519019 +0200,
149,pseudoword,überlefätsglave,lalt,False,138,138,0,lalt,1,0.16625049999947805,None,,,,,0,138,138,297,197.92619150000064,,,,,,,,,197.91343229999984,198.17789380000067,198.67863900000066,198.9113283000006,198.9113283000006,199.07889280000018,,,,,,,,,,,lalt,1,0.16625049999947805,None,199.07896970000002,199.07915779999985,,,044195,18,male,right,german,2024-10-23_13h56.15.156,demo_experiment,2024.2.3,60.085212848943684,2024-10-23 13h56.21.519019 +0200,
76,word,doch,ralt,False,139,139,0,lalt,0,0.007146800000555231,None,,,,,0,139,139,150,199.0958215999999,,,,,,,,,199.08032980000007,199.32879440000033,199.82938530000047,200.08022560000063,200.08022560000063,200.0975457000004,,,,,,,,,,,lalt,0,0.007146800000555231,None,200.09761590000016,200.09786410000015,,,044195,18,male,right,german,2024-10-23_13h56.15.156,demo_experiment,2024.2.3,60.085212848943684,2024-10-23 13h56.21.519019 +0200,
103,word,konsolidieren,ralt,False,140,140,0,lalt,0,0.23970350000035978,None,,,,,0,140,140,204,200.1134903000002,,,,,,,,,200.0997336999999,200.36354110000048,200.86479469999995,201.0980344999998,201.0980344999998,201.34969760000058,,,,,,,,,,,lalt,0,0.23970350000035978,None,201.34976280000046,201.349964,,,044195,18,male,right,german,2024-10-23_13h56.15.156,demo_experiment,2024.2.3,60.085212848943684,2024-10-23 13h56.21.519019 +0200,
80,word,eintreffe,ralt,False,141,141,0,lalt,0,0.04183050000028743,None,,,,,0,141,141,158,201.3653549999999,,,,,,,,,201.3516539000002,201.59856260000015,202.0997468000005,202.3495485000003,202.3495485000003,202.4007429000003,,,,,,,,,,,lalt,0,0.04183050000028743,None,202.4008012000004,202.4009386000007,,,044195,18,male,right,german,2024-10-23_13h56.15.156,demo_experiment,2024.2.3,60.085212848943684,2024-10-23 13h56.21.519019 +0200,
113,pseudoword,Nonfümiert,lalt,False,142,142,0,ralt,0,0.34320479999951203,None,,,,,0,142,142,225,202.416835,,,,,,,,,202.40245219999997,202.65072930000042,203.15113350000047,203.40187760000026,203.40187760000026,203.7530587000001,,,,,,,,,,,ralt,0,0.34320479999951203,None,203.75312630000008,203.7533454000004,,,044195,18,male,right,german,2024-10-23_13h56.15.156,demo_experiment,2024.2.3,60.085212848943684,2024-10-23 13h56.21.519019 +0200,
72,word,berauschten,ralt,False,143,143,0,ralt,1,0.024414399999841407,None,,,,,0,143,143,142,203.76902109999992,,,,,,,,,203.7552751000003,204.0188177,204.5202521000001,204.75434029999997,204.75434029999997,204.78895340000054,,,,,,,,,,,ralt,1,0.024414399999841407,None,204.78904599999987,204.7894022999999,,,044195,18,male,right,german,2024-10-23_13h56.15.156,demo_experiment,2024.2.3,60.085212848943684,2024-10-23 13h56.21.519019 +0200,
10,pseudoword,pändel,lalt,False,144,144,0,ralt,0,0.2364294000008158,None,,,,,0,144,144,19,204.80407079999986,,,,,,,,,204.79094020000048,205.05566270000054,205.5550600000006,205.7883154000001,205.7883154000001,206.03970000000027,,,,,,,,,,,ralt,0,0.2364294000008158,None,206.0397649000006,206.03997450000043,,,044195,18,male,right,german,2024-10-23_13h56.15.156,demo_experiment,2024.2.3,60.085212848943684,2024-10-23 13h56.21.519019 +0200,
12,word,Jugendfreund,ralt,False,145,145,0,ralt,1,0.022569499999917753,None,,,,,0,145,145,22,206.0550561,,,,,,,,,206.04282240000066,206.28958310000053,206.78974860000017,207.0403139,207.0403139,207.0745566000005,,,,,,,,,,,ralt,1,0.022569499999917753,None,207.07461130000047,207.07480530000066,,,044195,18,male,right,german,2024-10-23_13h56.15.156,demo_experiment,2024.2.3,60.085212848943684,2024-10-23 13h56.21.519019 +0200,
145,pseudoword,umdröstern,lalt,False,146,146,0,ralt,0,0.0786456999994698,None,,,,,0,146,146,289,207.09103680000044,,,,,,,,,207.07630659999995,207.324885,207.82442380000066,208.07464130000062,208.07464130000062,208.1594095999999,,,,,,,,,,,ralt,0,0.0786456999994698,None,208.15946500000064,208.15965830000005,,,044195,18,male,right,german,2024-10-23_13h56.15.156,demo_experiment,2024.2.3,60.085212848943684,2024-10-23 13h56.21.519019 +0200,
113,word,parfümiert,ralt,False,147,147,0,ralt,1,0.27395099999921513,None,,,,,0,147,147,224,208.17573540000012,,,,,,,,,208.16131730000052,208.4090956,208.91019750000032,209.16007720000016,209.16007720000016,209.44485650000024,,,,,,,,,,,ralt,1,0.27395099999921513,None,209.44493440000042,209.4452000000001,,,044195,18,male,right,german,2024-10-23_13h56.15.156,demo_experiment,2024.2.3,60.085212848943684,2024-10-23 13h56.21.519019 +0200,
29,pseudoword,Rechtsfissenstrent,lalt,False,148,148,0,ralt,0,0.11933649999991758,None,,,,,0,148,148,57,209.46080359999996,,,,,,,,,209.44705650000014,209.7108100000005,210.2123319000002,210.44646660000035,210.44646660000035,210.5795044000006,,,,,,,,,,,ralt,0,0.11933649999991758,None,210.57958229999986,210.5798918999999,,,044195,18,male,right,german,2024-10-23_13h56.15.156,demo_experiment,2024.2.3,60.085212848943684,2024-10-23 13h56.21.519019 +0200,
108,word,letzten,ralt,False,149,149,0,ralt,1,0.06313720000071044,None,,,,,0,149,149,214,210.59518780000053,,,,,,,,,210.58137130000068,210.84601610000027,211.3476301999999,211.58039850000023,211.58039850000023,211.64827479999985,,,,,,,,,,,ralt,1,0.06313720000071044,None,211.6483476000003,211.64855960000023,,,044195,18,male,right,german,2024-10-23_13h56.15.156,demo_experiment,2024.2.3,60.085212848943684,2024-10-23 13h56.21.519019 +0200,
18,word,Kreuzzug,ralt,False,150,150,0,ralt,1,0.04829220000010537,None,,,,,0,150,150,34,211.6643468000002,,,,,,,,,211.65035799999987,211.8974160000007,212.39875780000057,212.64901250000003,212.64901250000003,212.69928810000056,,,,,,,,,,,ralt,1,0.04829220000010537,None,215.3546938999998,215.3556583999998,,,044195,18,male,right,german,2024-10-23_13h56.15.156,demo_experiment,2024.2.3,60.085212848943684,2024-10-23 13h56.21.519019 +0200,
107,pseudoword,ledighens,lalt,False,151,151,0,ralt,0,0.6311098999995011,None,,,,,0,151,151,213,215.3607552000003,,,,,,,,,215.3572208000005,215.61883769999986,216.12008940000032,216.3703604000002,216.3703604000002,217.0052826000001,,,,,,,,,,,ralt,0,0.6311098999995011,None,217.00534000000061,217.00554060000013,,,044195,18,male,right,german,2024-10-23_13h56.15.156,demo_experiment,2024.2.3,60.085212848943684,2024-10-23 13h56.21.519019 +0200,
62,word,auffälliges,ralt,False,152,152,0,ralt,1,0.02291349999995873,None,,,,,0,152,152,122,217.02132280000023,,,,,,,,,217.00759560000006,217.25544530000025,217.75580150000042,218.00593579999986,218.00593579999986,218.04049810000015,,,,,,,,,,,ralt,1,0.02291349999995873,None,218.04058500000065,218.0407834000007,,,044195,18,male,right,german,2024-10-23_13h56.15.156,demo_experiment,2024.2.3,60.085212848943684,2024-10-23 13h56.21.519019 +0200,
66,pseudoword,aufnendöl,lalt,False,153,153,0,ralt,0,0.6214974000004077,None,,,,,0,153,153,131,218.0561316000003,,,,,,,,,218.04264730000068,218.3066013000007,218.80745690000003,219.04106580000007,219.04106580000007,219.6759536999998,,,,,,,,,,,ralt,0,0.6214974000004077,None,219.67603360000066,219.67629390000002,,,044195,18,male,right,german,2024-10-23_13h56.15.156,demo_experiment,2024.2.3,60.085212848943684,2024-10-23 13h56.21.519019 +0200,
132,word,versteigere,ralt,False,154,154,0,ralt,1,0.14109370000005583,None,,,,,0,154,154,262,219.69177519999994,,,,,,,,,219.67805370000042,219.92568500000016,220.42574570000033,220.67762649999986,220.67762649999986,220.82845439999983,,,,,,,,,,,ralt,1,0.14109370000005583,None,220.82851280000068,220.82874309999988,,,044195,18,male,right,german,2024-10-23_13h56.15.156,demo_experiment,2024.2.3,60.085212848943684,2024-10-23 13h56.21.519019 +0200,
47,pseudoword,Monbetierungen,lalt,False,155,155,0,ralt,0,0.18592700000044715,None,,,,,0,155,155,93,220.84410540000044,,,,,,,,,220.83044570000038,221.09455440000056,221.59499910000068,221.82888450000064,221.82888450000064,222.02983980000045,,,,,,,,,,,ralt,0,0.18592700000044715,None,222.02991500000007,222.03017080000063,,,044195,18,male,right,german,2024-10-23_13h56.15.156,demo_experiment,2024.2.3,60.085212848943684,2024-10-23 13h56.21.519019 +0200,
38,word,Symptom,ralt,False,156,156,0,ralt,1,None,None,,,,,0,156,156,74,222.04493820000062,,,,,,,,,222.03156170000057,222.29583840000032,222.7964817000002,223.03064989999984,223.03064989999984,223.14846790000047,,,,,,,,,,,ralt,1,None,None,223.1485290999999,223.14868060000026,,,044195,18,male,right,german,2024-10-23_13h56.15.156,demo_experiment,2024.2.3,60.085212848943684,2024-10-23 13h56.21.519019 +0200,
125,pseudoword,Sevewoknischen,lalt,False,157,157,0,ralt,0,0.14665929999955551,None,,,,,0,157,157,249,223.16488019999997,,,,,,,,,223.15034490000016,223.4143649000007,223.91503680000005,224.148639,224.148639,224.29943300000014,,,,,,,,,,,ralt,0,0.14665929999955551,None,224.29951299999993,224.29978850000043,,,044195,18,male,right,german,2024-10-23_13h56.15.156,demo_experiment,2024.2.3,60.085212848943684,2024-10-23 13h56.21.519019 +0200,
126,word,undurchdringbar,ralt,False,158,158,0,ralt,1,0.10848489999989397,None,,,,,0,158,158,250,224.31538400000045,,,,,,,,,224.30190870000024,224.54926119999982,225.05034220000016,225.30110890000014,225.30110890000014,225.41806780000024,,,,,,,,,,,ralt,1,0.10848489999989397,None,225.4181406000007,225.41833970000062,,,044195,18,male,right,german,2024-10-23_13h56.15.156,demo_experiment,2024.2.3,60.085212848943684,2024-10-23 13h56.21.519019 +0200,
46,pseudoword,Vestbesice,lalt,False,159,159,0,ralt,0,0.18940459999976156,None,,,,,0,159,159,91,225.43436999999994,,,,,,,,,225.41983700000037,225.66782890000013,226.16861040000003,226.41930130000037,226.41930130000037,226.62018780000017,,,,,,,,,,,ralt,0,0.18940459999976156,None,226.6202458000007,226.62043900000026,,,044195,18,male,right,german,2024-10-23_13h56.15.156,demo_experiment,2024.2.3,60.085212848943684,2024-10-23 13h56.21.519019 +0200,
21,word,Media,ralt,False,160,160,0,ralt,1,0.09568140000010317,None,,,,,0,160,160,40,226.63686450000023,,,,,,,,,226.6221028,226.88757630000055,227.38680560000012,227.6206054000004,227.6206054000004,227.72182310000062,,,,,,,,,,,ralt,1,0.09568140000010317,None,227.72190690000025,227.72211060000063,,,044195,18,male,right,german,2024-10-23_13h56.15.156,demo_experiment,2024.2.3,60.085212848943684,2024-10-23 13h56.21.519019 +0200,
123,word,strammen,ralt,False,161,161,0,ralt,1,0.08154920000015409,None,,,,,0,161,161,244,227.73805080000056,,,,,,,,,227.7237266000002,227.9878834000001,228.48876870000004,228.72200800000064,228.72200800000064,228.80675000000065,,,,,,,,,,,ralt,1,0.08154920000015409,None,228.8068320000002,228.8070346000004,,,044195,18,male,right,german,2024-10-23_13h56.15.156,demo_experiment,2024.2.3,60.085212848943684,2024-10-23 13h56.21.519019 +0200,
8,word,Filigrane,ralt,False,162,162,0,ralt,1,0.02438200000051438,None,,,,,0,162,162,14,228.82219010000063,,,,,,,,,228.8087513999999,229.0723527,229.57342030000018,229.80835060000027,229.80835060000027,229.84186860000045,,,,,,,,,,,ralt,1,0.02438200000051438,None,229.84192220000023,229.84209999999985,,,044195,18,male,right,german,2024-10-23_13h56.15.156,demo_experiment,2024.2.3,60.085212848943684,2024-10-23 13h56.21.519019 +0200,
58,pseudoword,abhiten,lalt,False,163,163,0,ralt,0,0.08436919999985548,None,,,,,0,163,163,115,229.85748870000043,,,,,,,,,229.84380090000013,230.09126040000046,230.5918760000004,230.84283760000017,230.84283760000017,230.94277740000052,,,,,,,,,,,ralt,0,0.08436919999985548,None,230.9428527,230.94305200000053,,,044195,18,male,right,german,2024-10-23_13h56.15.156,demo_experiment,2024.2.3,60.085212848943684,2024-10-23 13h56.21.519019 +0200,
13,pseudoword,Kahästle,lalt,False,164,164,0,ralt,0,0.09679730000061681,None,,,,,0,164,164,25,230.95905850000054,,,,,,,,,230.94453669999984,231.19245860000046,231.69353990000036,231.94434940000065,231.94434940000065,232.0445835999999,,,,,,,,,,,ralt,0,0.09679730000061681,None,232.04463970000052,232.04488390000006,,,044195,18,male,right,german,2024-10-23_13h56.15.156,demo_experiment,2024.2.3,60.085212848943684,2024-10-23 13h56.21.519019 +0200,
6,word,Faulpelze,ralt,False,165,165,0,ralt,1,0.19184070000028441,None,,,,,0,165,165,10,232.06094610000036,,,,,,,,,232.04775419999987,232.29451860000063,232.79520279999997,233.0459338999999,233.0459338999999,233.2463615000006,,,,,,,,,,,ralt,1,0.19184070000028441,None,233.2464174000006,233.24660529999983,,,044195,18,male,right,german,2024-10-23_13h56.15.156,demo_experiment,2024.2.3,60.085212848943684,2024-10-23 13h56.21.519019 +0200,
143,pseudoword,zerfanken,lalt,False,166,166,0,ralt,0,0.1291788999997152,None,,,,,0,166,166,285,233.26205870000013,,,,,,,,,233.24811769999997,233.49649709999994,233.99803450000036,234.24833860000035,234.24833860000035,234.38165480000043,,,,,,,,,,,ralt,0,0.1291788999997152,None,234.3817280000003,234.38196000000062,,,044195,18,male,right,german,2024-10-23_13h56.15.156,demo_experiment,2024.2.3,60.085212848943684,2024-10-23 13h56.21.519019 +0200,
115,pseudoword,nezolierten,lalt,False,167,167,0,ralt,0,0.0943304000002172,None,,,,,0,167,167,229,234.39733290000004,,,,,,,,,234.3835428000002,234.63119020000067,235.1321214999998,235.3826549000005,235.3826549000005,235.48360260000027,,,,,,,,,,,ralt,0,0.0943304000002172,None,235.4836992999999,235.48393639999995,,,044195,18,male,right,german,2024-10-23_13h56.15.156,demo_experiment,2024.2.3,60.085212848943684,2024-10-23 13h56.21.519019 +0200,
25,word,Nachmittagen,ralt,False,168,168,0,ralt,1,0.136813400000392,None,,,,,0,168,168,48,235.50030359999982,,,,,,,,,235.48588300000029,235.73320020000028,236.23383290000038,236.4848724000003,236.4848724000003,236.6354850000007,,,,,,,,,,,ralt,1,0.136813400000392,None,236.63559040000018,236.63583170000038,,,044195,18,male,right,german,2024-10-23_13h56.15.156,demo_experiment,2024.2.3,60.085212848943684,2024-10-23 13h56.21.519019 +0200,
121,pseudoword,sopfeibt,lalt,False,169,169,0,ralt,0,0.05041059999985009,None,,,,,0,169,169,241,236.65085780000027,,,,,,,,,236.63792130000002,236.8850841000003,237.38484440000047,237.63556440000048,237.63556440000048,237.68691230000059,,,,,,,,,,,ralt,0,0.05041059999985009,None,237.6869916000005,237.6872043000003,,,044195,18,male,right,german,2024-10-23_13h56.15.156,demo_experiment,2024.2.3,60.085212848943684,2024-10-23 13h56.21.519019 +0200,
42,word,Treter,ralt,False,170,170,0,ralt,1,0.13439199999993434,None,,,,,0,170,170,82,237.70271440000033,,,,,,,,,237.68876030000047,237.93655610000042,238.43705110000064,238.6875654000005,238.6875654000005,238.8385275999999,,,,,,,,,,,ralt,1,0.13439199999993434,None,238.83859269999994,238.8387345000001,,,044195,18,male,right,german,2024-10-23_13h56.15.156,demo_experiment,2024.2.3,60.085212848943684,2024-10-23 13h56.21.519019 +0200,
95,pseudoword,peschüchen,lalt,False,171,171,0,ralt,0,0.15728049999961513,None,,,,,0,171,171,189,238.85432219999984,,,,,,,,,238.84053930000027,239.08838809999997,239.58864200000062,239.83878710000045,239.83878710000045,240.00715850000051,,,,,,,,,,,ralt,0,0.15728049999961513,None,240.00722810000025,240.0075323000001,,,044195,18,male,right,german,2024-10-23_13h56.15.156,demo_experiment,2024.2.3,60.085212848943684,2024-10-23 13h56.21.519019 +0200,
140,word,wundersamer,ralt,False,172,172,0,ralt,1,0.07882770000014716,None,,,,,0,172,172,278,240.0230878000002,,,,,,,,,240.00953160000063,240.25755949999984,240.75766999999996,241.00723090000065,241.00723090000065,241.09165570000005,,,,,,,,,,,ralt,1,0.07882770000014716,None,241.0917124000007,241.09186150000005,,,044195,18,male,right,german,2024-10-23_13h56.15.156,demo_experiment,2024.2.3,60.085212848943684,2024-10-23 13h56.21.519019 +0200,
76,pseudoword,dogt,lalt,False,173,173,0,ralt,0,0.017887799999698473,None,,,,,0,173,173,151,241.10750869999993,,,,,,,,,241.09311350000007,241.34101160000046,241.84242480000012,242.0922356000001,242.0922356000001,242.1266166000005,,,,,,,,,,,ralt,0,0.017887799999698473,None,242.12668610000037,242.12686980000035,,,044195,18,male,right,german,2024-10-23_13h56.15.156,demo_experiment,2024.2.3,60.085212848943684,2024-10-23 13h56.21.519019 +0200,
16,pseudoword,Rabphimution,lalt,False,174,174,0,ralt,0,0.17147129999921162,None,,,,,0,174,174,31,242.14270680000027,,,,,,,,,242.12858159999996,242.37666619999982,242.87822180000057,243.12784850000025,243.12784850000025,243.31220800000028,,,,,,,,,,,ralt,0,0.17147129999921162,None,243.31228470000042,243.31252949999998,,,044195,18,male,right,german,2024-10-23_13h56.15.156,demo_experiment,2024.2.3,60.085212848943684,2024-10-23 13h56.21.519019 +0200,
38,pseudoword,Sönttom,lalt,False,175,175,0,ralt,0,0.17285809999975754,None,,,,,0,175,175,75,243.3273033000005,,,,,,,,,243.31390420000025,243.56110590000026,244.06265340000027,244.31260850000035,244.31260850000035,244.49692349999987,,,,,,,,,,,ralt,0,0.17285809999975754,None,244.49702810000053,244.4972318,,,044195,18,male,right,german,2024-10-23_13h56.15.156,demo_experiment,2024.2.3,60.085212848943684,2024-10-23 13h56.21.519019 +0200,
20,pseudoword,Maumburg,lalt,False,176,176,0,ralt,0,0.17783020000024408,None,,,,,0,176,176,39,244.51276550000057,,,,,,,,,244.49940479999987,244.74673900000016,245.2487942000007,245.49810140000045,245.49810140000045,245.6822615000001,,,,,,,,,,,ralt,0,0.17783020000024408,None,245.6823327000002,245.68254740000066,,,044195,18,male,right,german,2024-10-23_13h56.15.156,demo_experiment,2024.2.3,60.085212848943684,2024-10-23 13h56.21.519019 +0200,
9,word,Geschicke,ralt,False,177,177,0,ralt,1,0.23311029999968014,None,,,,,0,177,177,16,245.69837000000007,,,,,,,,,245.6839872999999,245.94811459999983,246.44962709999982,246.68279100000018,246.68279100000018,246.9170754000006,,,,,,,,,,,ralt,1,0.23311029999968014,None,246.91713059999984,246.91727859999992,,,044195,18,male,right,german,2024-10-23_13h56.15.156,demo_experiment,2024.2.3,60.085212848943684,2024-10-23 13h56.21.519019 +0200,
34,pseudoword,Horke,lalt,False,178,178,0,ralt,0,0.10187279999991006,None,,,,,0,178,178,67,246.93335879999995,,,,,,,,,246.91888610000024,247.16725720000068,247.66766989999996,247.91918910000004,247.91918910000004,248.0356056999999,,,,,,,,,,,ralt,0,0.10187279999991006,None,248.0356655000005,248.0358415999999,,,044195,18,male,right,german,2024-10-23_13h56.15.156,demo_experiment,2024.2.3,60.085212848943684,2024-10-23 13h56.21.519019 +0200,
69,word,befolgen,ralt,False,179,179,0,ralt,1,0.16609979999975621,None,,,,,0,179,179,136,248.05216410000048,,,,,,,,,248.03739829999995,248.28502819999994,248.78629030000047,249.0371410000007,249.0371410000007,249.20409000000018,,,,,,,,,,,ralt,1,0.16609979999975621,None,249.20416750000004,249.2044259000004,,,044195,18,male,right,german,2024-10-23_13h56.15.156,demo_experiment,2024.2.3,60.085212848943684,2024-10-23 13h56.21.519019 +0200,
55,pseudoword,angeträrken,lalt,False,180,180,0,ralt,0,0.08158069999990403,None,,,,,0,180,180,109,249.21966630000043,,,,,,,,,249.20607980000023,249.45350510000026,249.95498469999984,250.20475590000024,250.20475590000024,250.28882030000022,,,,,,,,,,,ralt,0,0.08158069999990403,None,250.28892340000039,250.28918030000023,,,044195,18,male,right,german,2024-10-23_13h56.15.156,demo_experiment,2024.2.3,60.085212848943684,2024-10-23 13h56.21.519019 +0200,
37,pseudoword,spraxenwäschen,lalt,False,181,181,0,ralt,0,0.12647830000059912,None,,,,,0,181,181,73,250.30562250000003,,,,,,,,,250.2914950000004,250.53827880000063,251.03914739999982,251.2898369000004,251.2898369000004,251.42549680000047,,,,,,,,,,,ralt,0,0.12647830000059912,None,251.4255751999999,251.4257822999998,,,044195,18,male,right,german,2024-10-23_13h56.15.156,demo_experiment,2024.2.3,60.085212848943684,2024-10-23 13h56.21.519019 +0200,
54,pseudoword,artkossend,lalt,False,182,182,0,ralt,0,0.10462949999964621,None,,,,,0,182,182,107,251.43998910000028,,,,,,,,,251.42732100000012,251.69179789999998,252.1909968,252.42513469999994,252.42513469999994,252.5426164999999,,,,,,,,,,,ralt,0,0.10462949999964621,None,252.5426735000001,252.54281750000064,,,044195,18,male,right,german,2024-10-23_13h56.15.156,demo_experiment,2024.2.3,60.085212848943684,2024-10-23 13h56.21.519019 +0200,
10,word,Gondel,ralt,False,183,183,0,ralt,1,0.14267219999965164,None,,,,,0,183,183,18,252.55826330000036,,,,,,,,,252.5445454999999,252.79193250000026,253.29375600000003,253.5434264000005,253.5434264000005,253.6943095000006,,,,,,,,,,,ralt,1,0.14267219999965164,None,253.69436730000052,253.69453479999993,,,044195,18,male,right,german,2024-10-23_13h56.15.156,demo_experiment,2024.2.3,60.085212848943684,2024-10-23 13h56.21.519019 +0200,
138,word,wissenschaftlicheren,ralt,False,184,184,0,ralt,1,0.048337399999581976,None,,,,,0,184,184,274,253.7098893000002,,,,,,,,,253.6965863000005,253.94466890000058,254.44579969999995,254.6952712000002,254.6952712000002,254.7459398000001,,,,,,,,,,,ralt,1,0.048337399999581976,None,254.74603879999995,254.74636060000012,,,044195,18,male,right,german,2024-10-23_13h56.15.156,demo_experiment,2024.2.3,60.085212848943684,2024-10-23 13h56.21.519019 +0200,
90,pseudoword,riviert,lalt,False,185,185,0,ralt,0,0.18259599999964848,None,,,,,0,185,185,179,254.76202139999987,,,,,,,,,254.74828940000043,254.99601350000012,255.49617370000033,255.74701749999986,255.74701749999986,255.93032649999986,,,,,,,,,,,ralt,0,0.18259599999964848,None,255.93039039999985,255.93054850000044,,,044195,18,male,right,german,2024-10-23_13h56.15.156,demo_experiment,2024.2.3,60.085212848943684,2024-10-23 13h56.21.519019 +0200,
19,pseudoword,Lobgliegung,lalt,False,186,186,0,ralt,0,0.12831199999982346,None,,,,,0,186,186,37,255.94735190000029,,,,,,,,,255.9321286000004,256.18009729999994,256.68131619999986,256.93118779999986,256.93118779999986,257.0661026000007,,,,,,,,,,,ralt,0,0.12831199999982346,None,257.0661605000005,257.06635170000027,,,044195,18,male,right,german,2024-10-23_13h56.15.156,demo_experiment,2024.2.3,60.085212848943684,2024-10-23 13h56.21.519019 +0200,
6,pseudoword,peigpelze,lalt,False,187,187,0,ralt,0,0.1779166999995141,None,,,,,0,187,187,11,257.0821155000003,,,,,,,,,257.0680688000002,257.3153364,257.8167258000003,258.06684029999997,258.06684029999997,258.2509729000003,,,,,,,,,,,ralt,0,0.1779166999995141,None,258.25107670000034,258.25130549999994,,,044195,18,male,right,german,2024-10-23_13h56.15.156,demo_experiment,2024.2.3,60.085212848943684,2024-10-23 13h56.21.519019 +0200,
22,pseudoword,Tieme,lalt,False,188,188,0,ralt,0,0.06087969999953202,None,,,,,0,188,188,43,258.26699439999993,,,,,,,,,258.25306439999986,258.50102700000025,259.0024452000007,259.25339020000047,259.25339020000047,259.3193511999998,,,,,,,,,,,ralt,0,0.06087969999953202,None,259.31940490000034,259.3196003000003,,,044195,18,male,right,german,2024-10-23_13h56.15.156,demo_experiment,2024.2.3,60.085212848943684,2024-10-23 13h56.21.519019 +0200,
95,word,gesprochen,ralt,False,189,189,0,ralt,1,0.1893940999998449,None,,,,,0,189,189,188,259.3350104000001,,,,,,,,,259.3209334000003,259.56920230000014,260.06943839999985,260.32018140000037,260.32018140000037,260.5210874000004,,,,,,,,,,,ralt,1,0.1893940999998449,None,260.52114410000013,260.5213468000002,,,044195,18,male,right,german,2024-10-23_13h56.15.156,demo_experiment,2024.2.3,60.085212848943684,2024-10-23 13h56.21.519019 +0200,
139,word,wunderbaren,ralt,False,190,190,0,ralt,1,0.14322460000039428,None,,,,,0,190,190,276,260.53751660000034,,,,,,,,,260.52349219999996,260.7714652000004,261.2716906000005,261.5215280000002,261.5215280000002,261.6731815000003,,,,,,,,,,,ralt,1,0.14322460000039428,None,261.67326500000036,261.67347040000004,,,044195,18,male,right,german,2024-10-23_13h56.15.156,demo_experiment,2024.2.3,60.085212848943684,2024-10-23 13h56.21.519019 +0200,
128,word,verantwortungsvollen,ralt,False,191,191,0,ralt,1,0.14542809999966266,None,,,,,0,191,191,254,261.68860380000024,,,,,,,,,261.6756593,261.93904329999987,262.44065320000027,262.67456159999983,262.67456159999983,262.8231970000006,,,,,,,,,,,ralt,1,0.14542809999966266,None,262.82325579999997,262.82341410000026,,,044195,18,male,right,german,2024-10-23_13h56.15.156,demo_experiment,2024.2.3,60.085212848943684,2024-10-23 13h56.21.519019 +0200,
65,word,aufspielt,ralt,False,192,192,0,ralt,1,0.16841829999975744,None,,,,,0,192,192,128,262.84077310000066,,,,,,,,,262.8253089,263.0754231000001,263.57504359999984,263.82562750000034,263.82562750000034,264.00991760000034,,,,,,,,,,,ralt,1,0.16841829999975744,None,264.009994,264.0101732000003,,,044195,18,male,right,german,2024-10-23_13h56.15.156,demo_experiment,2024.2.3,60.085212848943684,2024-10-23 13h56.21.519019 +0200,
39,word,Sägewerk,ralt,False,193,193,0,ralt,1,0.17559150000033696,None,,,,,0,193,193,76,264.0259749000006,,,,,,,,,264.01166530000046,264.2597863000001,264.7604007,265.0106239000006,265.0106239000006,265.19462939999994,,,,,,,,,,,ralt,1,0.17559150000033696,None,265.1947121000003,265.1949476,,,044195,18,male,right,german,2024-10-23_13h56.15.156,demo_experiment,2024.2.3,60.085212848943684,2024-10-23 13h56.21.519019 +0200,
44,pseudoword,Verausgapunkt,lalt,False,194,194,0,ralt,0,0.067741500000011,None,,,,,0,194,194,87,265.21090390000063,,,,,,,,,265.19707050000034,265.4445033000002,265.9452525000006,266.1961230000006,266.1961230000006,266.28044899999986,,,,,,,,,,,ralt,0,0.067741500000011,None,266.28055290000066,266.2807405000003,,,044195,18,male,right,german,2024-10-23_13h56.15.156,demo_experiment,2024.2.3,60.085212848943684,2024-10-23 13h56.21.519019 +0200,
60,pseudoword,auz,lalt,False,195,195,0,ralt,0,0.4408587999996598,None,,,,,0,195,195,119,266.2954802000004,,,,,,,,,266.2821799000003,266.5472066000002,267.0479060000007,267.28082390000054,267.28082390000054,267.73231300000043,,,,,,,,,,,ralt,0,0.4408587999996598,None,267.7323922000005,267.7326449000002,,,044195,18,male,right,german,2024-10-23_13h56.15.156,demo_experiment,2024.2.3,60.085212848943684,2024-10-23 13h56.21.519019 +0200,
87,pseudoword,Cermelen,lalt,False,196,196,0,ralt,0,0.0889311999999336,None,,,,,0,196,196,173,267.7485746000002,,,,,,,,,267.7340191000003,267.9982361000002,268.4989050000004,268.7327862000002,268.7327862000002,268.83401310000045,,,,,,,,,,,ralt,0,0.0889311999999336,None,268.83410790000016,268.8342891000002,,,044195,18,male,right,german,2024-10-23_13h56.15.156,demo_experiment,2024.2.3,60.085212848943684,2024-10-23 13h56.21.519019 +0200,
68,word,baufälliges,ralt,False,197,197,0,ralt,1,0.18282650000037393,None,,,,,0,197,197,134,268.8503565000001,,,,,,,,,268.8361005000006,269.08354080000026,269.5838334,269.8340816,269.8340816,270.0187154000005,,,,,,,,,,,ralt,1,0.18282650000037393,None,270.0187716999999,270.01892430000044,,,044195,18,male,right,german,2024-10-23_13h56.15.156,demo_experiment,2024.2.3,60.085212848943684,2024-10-23 13h56.21.519019 +0200,
123,pseudoword,Sprommen,lalt,False,198,198,0,ralt,0,0.0961645999996108,None,,,,,0,198,198,245,270.0348905999999,,,,,,,,,270.02055569999993,270.2685302,270.7691629000001,271.02039740000055,271.02039740000055,271.11993729999995,,,,,,,,,,,ralt,0,0.0961645999996108,None,271.12001820000023,271.12022830000024,,,044195,18,male,right,german,2024-10-23_13h56.15.156,demo_experiment,2024.2.3,60.085212848943684,2024-10-23 13h56.21.519019 +0200,
82,word,entgegenkommende,ralt,False,199,199,0,ralt,1,0.0645368999994389,None,,,,,0,199,199,162,271.13653049999994,,,,,,,,,271.12188810000043,271.3703499000003,271.87086009999985,272.12168999999994,272.12168999999994,272.18840720000026,,,,,,,,,,,ralt,1,0.0645368999994389,None,272.18846510000003,272.18866960000014,,,044195,18,male,right,german,2024-10-23_13h56.15.156,demo_experiment,2024.2.3,60.085212848943684,2024-10-23 13h56.21.519019 +0200,
70,pseudoword,vezönlerten,lalt,False,200,200,0,ralt,0,0.12004430000069988,None,,,,,0,200,200,139,272.2047605000007,,,,,,,,,272.19070790000023,272.4384088000006,272.9401278000005,273.1895733000001,273.1895733000001,273.32395610000003,,,,,,,,,,,ralt,0,0.12004430000069988,None,276.54896540000027,276.5497086000005,,,044195,18,male,right,german,2024-10-23_13h56.15.156,demo_experiment,2024.2.3,60.085212848943684,2024-10-23 13h56.21.519019 +0200,
100,pseudoword,indergnetauts,lalt,False,201,201,0,ralt,0,0.08540829999947164,None,,,,,0,201,201,199,276.5550067000004,,,,,,,,,276.55142109999997,276.8022606000004,277.3034096000001,277.5533548000003,277.5533548000003,277.6549160000004,,,,,,,,,,,ralt,0,0.08540829999947164,None,277.6549936000001,277.6551949000004,,,044195,18,male,right,german,2024-10-23_13h56.15.156,demo_experiment,2024.2.3,60.085212848943684,2024-10-23 13h56.21.519019 +0200,
125,word,telepathischen,ralt,False,202,202,0,ralt,1,0.16007879999961006,None,,,,,0,202,202,248,277.6706858000007,,,,,,,,,277.65701979999994,277.90475510000033,278.4052614000002,278.6548496000005,278.6548496000005,278.8234874,,,,,,,,,,,ralt,1,0.16007879999961006,None,278.82354550000036,278.8237377000005,,,044195,18,male,right,german,2024-10-23_13h56.15.156,demo_experiment,2024.2.3,60.085212848943684,2024-10-23 13h56.21.519019 +0200,
56,pseudoword,abbekägen,lalt,False,203,203,0,ralt,0,0.0013383000004978385,None,,,,,0,203,203,111,278.83894409999994,,,,,,,,,278.82530300000053,279.08931329999996,279.5896945000004,279.8249771999999,279.8249771999999,279.84180950000064,,,,,,,,,,,ralt,0,0.0013383000004978385,None,279.8418650000003,279.8420571000006,,,044195,18,male,right,german,2024-10-23_13h56.15.156,demo_experiment,2024.2.3,60.085212848943684,2024-10-23 13h56.21.519019 +0200,
81,pseudoword,emptöltig,lalt,False,204,204,0,ralt,0,0.01761629999964498,None,,,,,0,204,204,161,279.8573176,,,,,,,,,279.84385699999984,280.1073587000001,280.6084993000004,280.8424722,280.8424722,280.8762112000004,,,,,,,,,,,ralt,0,0.01761629999964498,None,280.87632570000005,280.8766106000003,,,044195,18,male,right,german,2024-10-23_13h56.15.156,demo_experiment,2024.2.3,60.085212848943684,2024-10-23 13h56.21.519019 +0200,
57,word,ansehen,ralt,False,205,205,0,ralt,1,0.06978340000023309,None,,,,,0,205,205,112,280.8922519000007,,,,,,,,,280.8788207000007,281.1253366000001,281.62736810000024,281.8772910000007,281.8772910000007,281.9615776999999,,,,,,,,,,,ralt,1,0.06978340000023309,None,281.9616343000007,281.96184320000066,,,044195,18,male,right,german,2024-10-23_13h56.15.156,demo_experiment,2024.2.3,60.085212848943684,2024-10-23 13h56.21.519019 +0200,
73,pseudoword,besprofen,lalt,False,206,206,0,ralt,0,0.15428550000069663,None,,,,,0,206,206,145,281.97677060000024,,,,,,,,,281.9633143000001,282.2276318000004,282.72794740000063,282.9620706000005,282.9620706000005,283.12971240000024,,,,,,,,,,,ralt,0,0.15428550000069663,None,283.1297869,283.1300850000007,,,044195,18,male,right,german,2024-10-23_13h56.15.156,demo_experiment,2024.2.3,60.085212848943684,2024-10-23 13h56.21.519019 +0200,
142,pseudoword,zürgiger,lalt,False,207,207,0,ralt,0,0.15652760000011767,None,,,,,0,207,207,283,283.1455182999998,,,,,,,,,283.1319861000002,283.3954609000002,283.8968224,284.13059500000054,284.13059500000054,284.2979713000004,,,,,,,,,,,ralt,0,0.15652760000011767,None,284.29805269999997,284.29830200000015,,,044195,18,male,right,german,2024-10-23_13h56.15.156,demo_experiment,2024.2.3,60.085212848943684,2024-10-23 13h56.21.519019 +0200,
26,pseudoword,ponzellen,lalt,False,208,208,0,ralt,0,0.06134920000022248,None,,,,,0,208,208,51,284.31413560000055,,,,,,,,,284.2997357000004,284.56410289999985,285.0654975000007,285.2987449000002,285.2987449000002,285.3664198000006,,,,,,,,,,,ralt,0,0.06134920000022248,None,285.3664939,285.3666897000003,,,044195,18,male,right,german,2024-10-23_13h56.15.156,demo_experiment,2024.2.3,60.085212848943684,2024-10-23 13h56.21.519019 +0200,
43,pseudoword,Abgegöbe,lalt,False,209,209,0,ralt,0,0.11830819999977393,None,,,,,0,209,209,85,285.3822665000007,,,,,,,,,285.3681901,285.6334372000001,286.1332056000001,286.3670622999998,286.3670622999998,286.50202249999984,,,,,,,,,,,ralt,0,0.11830819999977393,None,286.5021303000003,286.5023584999999,,,044195,18,male,right,german,2024-10-23_13h56.15.156,demo_experiment,2024.2.3,60.085212848943684,2024-10-23 13h56.21.519019 +0200,
105,word,lateinamerikanischer,ralt,False,210,210,0,ralt,1,0.16942250000010972,None,,,,,0,210,210,208,286.5181704000006,,,,,,,,,286.5045694999999,286.7676664999999,287.26820560000033,287.5018239000001,287.5018239000001,287.68657320000057,,,,,,,,,,,ralt,1,0.16942250000010972,None,287.6866815000003,287.6869645000006,,,044195,18,male,right,german,2024-10-23_13h56.15.156,demo_experiment,2024.2.3,60.085212848943684,2024-10-23 13h56.21.519019 +0200,
23,word,Modepuppe,ralt,False,211,211,0,ralt,1,0.18548869999995077,None,,,,,0,211,211,44,287.7804629000002,,,,,,,,,287.7763257000006,287.94417520000025,288.44626490000064,288.6958841000005,288.6958841000005,288.8972555,,,,,,,,,,,ralt,1,0.18548869999995077,None,288.89731050000046,288.8975006999999,,,044195,18,male,right,german,2024-10-23_13h56.15.156,demo_experiment,2024.2.3,60.085212848943684,2024-10-23 13h56.21.519019 +0200,
85,word,erschrickt,ralt,False,212,212,0,ralt,1,0.03705369999988761,None,,,,,0,212,212,168,288.9129641999998,,,,,,,,,288.89929089999987,289.16396150000037,289.66321870000047,289.8985194000006,289.8985194000006,289.9495754999998,,,,,,,,,,,ralt,1,0.03705369999988761,None,289.9496608999998,289.9498994000005,,,044195,18,male,right,german,2024-10-23_13h56.15.156,demo_experiment,2024.2.3,60.085212848943684,2024-10-23 13h56.21.519019 +0200,
59,word,armes,ralt,False,213,213,0,ralt,1,0.2941482000005635,None,,,,,0,213,213,116,289.9646865000004,,,,,,,,,289.95119539999996,290.2144603000006,290.71562059999997,290.94965200000024,290.94965200000024,291.25017040000057,,,,,,,,,,,ralt,1,0.2941482000005635,None,291.2502430000004,291.2505093,,,044195,18,male,right,german,2024-10-23_13h56.15.156,demo_experiment,2024.2.3,60.085212848943684,2024-10-23 13h56.21.519019 +0200,
